date,rt,trial_type,trial_index,time_elapsed,internal_node_id,gender,age,randomID,phase,success,timeout,response,coin_simulate_resp,Q1,Q2,Q3,Q4,Q5,Q6,Q7,Q8,Q9,Q10,Q11,Q12,Q13,Q14,Q15,Q16,Q17,Q18,Q19,Q20,Q21,Q22,Q23,Q24,Q25,Q26,Q27,Q28,Q29,Q30,Q31,Q32,Q33,Q34,Q35,Q36,coin_real_resp,coin_ura,diff_coin_resp,first_task,second_task,third_task,key_press,avg_frame_time,center_x,center_y,button_pressed,result_index
2023-07-25-08:00:38,1768,html-button-response,1,3538,0.0-1.0,1,52,kmcoxlxd,1,NULL,NULL,0,17,2,1,3,1,1,2,3,2,3,1,3,3,3,2,3,1,1,1,3,2,1,2,2,1,1,2,2,3,2,2,2,2,2,2,6,3,20,9,8,13,15,5,NULL,NULL,NULL,NULL,NULL,NULL
2023-07-25-08:00:34,1464,html-button-response,1,2224,0.0-1.0,1,54,b7ugt4qg,1,NULL,NULL,0,8,2,3,3,1,1,2,2,2,3,1,1,3,3,2,3,1,1,2,3,2,1,2,2,2,2,2,3,3,3,3,2,3,3,3,2,3,8,10,-2,15,13,5,NULL,NULL,NULL,NULL,NULL,NULL
2023-07-25-08:00:55,3249,html-button-response,1,3505,0.0-1.0,1,54,8j5h65dq,1,NULL,NULL,0,9,2,3,3,1,1,2,3,3,5,1,1,4,4,1,3,1,2,1,4,2,1,2,2,2,1,2,2,3,2,3,1,3,2,3,7,2,12,11,-2,5,13,15,NULL,NULL,NULL,NULL,NULL,NULL
2023-07-25-08:01:09,17754,html-button-response,1,18016,0.0-1.0,1,33,l28row28,1,NULL,NULL,0,7,2,3,3,2,1,2,3,3,4,3,1,4,4,2,2,1,1,1,3,2,1,2,2,2,1,2,2,4,2,2,1,3,4,5,2,2,13,7,0,15,13,5,NULL,NULL,NULL,NULL,NULL,NULL
2023-07-25-08:01:11,9828,html-button-response,1,11462,0.0-1.0,1,37,mlkcsxox,1,NULL,NULL,0,10,2,3,3,1,1,2,2,1,5,2,2,2,4,2,3,1,1,1,3,2,1,2,1,1,1,3,2,1,2,1,1,2,4,5,4,3,10,10,0,5,15,13,NULL,NULL,NULL,NULL,NULL,NULL
2023-07-25-08:00:57,5365,html-button-response,1,6058,0.0-1.0,1,48,5d9g9lu2,1,NULL,NULL,0,10,2,3,3,1,1,2,3,3,5,1,1,3,5,2,5,1,1,4,4,2,1,2,2,1,1,3,3,1,2,3,1,4,1,2,4,4,10,10,0,15,13,5,NULL,NULL,NULL,NULL,NULL,NULL
2023-07-25-08:01:33,3753,html-button-response,1,4642,0.0-1.0,1,41,kmuj2jj7,1,NULL,NULL,0,11,2,3,3,1,1,2,3,1,5,1,1,3,4,2,4,1,2,1,4,2,1,2,2,1,1,3,3,1,2,2,1,2,1,1,4,3,8,10,1,5,13,15,NULL,NULL,NULL,NULL,NULL,NULL
2023-07-25-08:00:45,2424,html-button-response,1,3426,0.0-1.0,1,47,a7d7ysn2,1,NULL,NULL,0,9,2,3,3,2,1,2,2,2,5,1,1,4,5,2,3,1,2,4,1,2,1,2,2,4,1,3,2,2,1,1,1,3,4,3,3,4,0,9,0,13,5,15,NULL,NULL,NULL,NULL,NULL,NULL
2023-07-25-08:02:02,2628,html-button-response,1,3150,0.0-1.0,1,36,qb0855t2,1,NULL,NULL,0,10,2,3,3,1,1,2,2,1,5,1,1,3,2,2,4,1,1,4,4,2,1,2,2,1,1,3,3,5,5,4,1,3,4,5,2,3,14,10,0,5,13,15,NULL,NULL,NULL,NULL,NULL,NULL
2023-07-25-08:00:38,3374,html-button-response,1,3930,0.0-1.0,1,19,mcxzn3dc,1,NULL,NULL,0,10,2,3,3,1,1,2,2,2,5,1,1,4,4,1,2,1,1,4,4,2,1,2,1,1,1,3,3,2,5,2,1,1,2,4,1,5,9,10,0,13,15,5,NULL,NULL,NULL,NULL,NULL,NULL
2023-07-25-08:00:50,4881,html-button-response,1,6741,0.0-1.0,1,49,x1n1mlw6,1,NULL,NULL,0,12,2,3,3,1,1,2,2,3,5,1,1,5,4,2,4,1,1,1,4,2,1,2,2,1,1,2,2,2,5,4,2,2,1,2,2,5,13,12,0,13,5,15,NULL,NULL,NULL,NULL,NULL,NULL
2023-07-25-08:01:16,2215,html-button-response,1,2226,0.0-1.0,1,50,yk4ksjof,1,NULL,NULL,0,20,2,3,3,1,1,2,3,2,4,1,1,3,3,2,3,1,1,1,3,2,1,2,2,3,1,3,3,3,2,3,1,3,3,3,5,1,20,10,10,5,15,13,NULL,NULL,NULL,NULL,NULL,NULL
2023-07-25-08:02:35,39521,html-button-response,1,40090,0.0-1.0,2,50,z797vd5z,1,NULL,NULL,0,11,2,3,3,1,1,2,3,3,5,3,2,4,4,3,4,1,1,3,4,2,1,2,1,2,1,2,2,3,1,2,1,4,2,3,4,4,14,11,0,13,5,15,NULL,NULL,NULL,NULL,NULL,NULL
2023-07-25-08:01:05,16982,html-button-response,1,17703,0.0-1.0,1,44,c6gype86,1,NULL,NULL,0,13,2,3,3,1,1,2,2,2,5,1,1,4,4,3,4,1,1,1,5,2,1,2,2,1,1,3,3,1,5,2,1,2,1,1,3,5,6,13,0,13,15,5,NULL,NULL,NULL,NULL,NULL,NULL
2023-07-25-08:01:04,26566,html-button-response,1,27145,0.0-1.0,1,36,7y4gf5bc,1,NULL,NULL,0,11,2,3,3,1,1,2,2,3,5,1,1,4,2,2,4,1,2,2,4,2,1,2,2,1,1,3,3,1,1,1,1,4,1,4,3,4,11,11,0,13,15,5,NULL,NULL,NULL,NULL,NULL,NULL
2023-07-25-08:01:02,11743,html-button-response,1,12665,0.0-1.0,2,46,3u4dhdrg,1,NULL,NULL,0,8,2,3,3,1,1,2,3,3,5,1,1,4,4,3,3,3,1,4,3,2,1,2,2,1,1,2,2,2,2,2,1,4,2,2,5,3,12,12,-4,15,13,5,NULL,NULL,NULL,NULL,NULL,NULL
2023-07-25-08:01:19,11909,html-button-response,1,13782,0.0-1.0,1,47,7jzo470a,1,NULL,NULL,0,11,2,3,3,1,1,2,1,3,5,1,1,5,4,3,2,1,1,2,5,2,1,1,2,3,1,3,3,1,5,3,1,2,2,1,3,5,11,11,0,5,13,15,NULL,NULL,NULL,NULL,NULL,NULL
2023-07-25-08:00:45,6203,html-button-response,1,7036,0.0-1.0,1,45,k3k9bmp0,1,NULL,NULL,0,9,2,3,3,1,1,2,2,2,5,1,1,3,2,2,5,3,2,4,4,2,1,2,2,1,1,3,2,2,5,4,1,2,2,4,4,3,5,9,0,15,13,5,NULL,NULL,NULL,NULL,NULL,NULL
2023-07-25-08:02:49,21864,html-button-response,1,22817,0.0-1.0,1,32,cgumbpgg,1,NULL,NULL,0,8,2,3,3,2,1,2,4,1,4,3,1,4,4,3,4,1,1,4,3,1,1,2,2,2,2,3,2,4,1,4,2,4,4,3,6,4,12,12,-4,15,13,5,NULL,NULL,NULL,NULL,NULL,NULL
2023-07-25-08:00:56,9983,html-button-response,1,12636,0.0-1.0,1,67,wxotqtgq,1,NULL,NULL,0,9,2,3,3,1,1,2,3,2,5,1,1,4,4,2,4,1,2,4,4,2,1,1,2,4,1,4,4,1,2,2,1,4,1,1,5,3,9,9,0,13,5,15,NULL,NULL,NULL,NULL,NULL,NULL
2023-07-25-08:00:50,7968,html-button-response,1,8792,0.0-1.0,1,39,kb0zkc58,1,NULL,NULL,0,8,2,3,3,1,1,2,2,3,4,1,1,4,2,2,3,1,1,2,2,2,1,2,1,1,1,3,3,2,2,3,2,4,2,2,4,4,8,10,-2,15,13,5,NULL,NULL,NULL,NULL,NULL,NULL
2023-07-25-08:00:31,2162,html-button-response,1,3040,0.0-1.0,1,48,vaajau4e,1,NULL,NULL,0,20,2,3,3,2,1,2,3,1,5,1,1,4,3,1,3,1,2,4,1,2,1,2,2,2,1,3,3,2,5,4,1,2,3,3,5,3,12,12,8,13,5,15,NULL,NULL,NULL,NULL,NULL,NULL
2023-07-25-08:01:12,7859,html-button-response,1,8912,0.0-1.0,1,35,a2ox91qr,1,NULL,NULL,0,9,2,3,3,1,1,2,3,3,5,1,1,4,5,2,3,1,1,4,5,2,2,2,2,1,1,3,3,2,1,2,1,4,3,3,5,3,14,9,0,13,15,5,NULL,NULL,NULL,NULL,NULL,NULL
2023-07-25-08:00:56,4977,html-button-response,1,6233,0.0-1.0,2,65,m3wafg4a,1,NULL,NULL,0,8,2,3,3,1,1,2,2,4,5,1,1,4,5,3,4,1,2,4,4,2,1,2,2,1,1,3,3,1,2,2,1,4,1,2,4,5,9,12,-4,15,13,5,NULL,NULL,NULL,NULL,NULL,NULL
2023-07-25-08:00:50,3701,html-button-response,1,4541,0.0-1.0,1,51,7drx1a6q,1,NULL,NULL,0,15,2,3,3,1,1,2,4,1,5,1,1,3,3,2,4,1,1,3,2,2,1,2,2,1,1,2,2,1,5,2,1,2,2,3,1,5,10,15,0,15,13,5,NULL,NULL,NULL,NULL,NULL,NULL
2023-07-25-08:02:14,15640,html-button-response,1,15858,0.0-1.0,1,53,1f3b0hb7,1,NULL,NULL,0,10,2,3,3,1,1,2,3,1,5,1,1,4,4,3,3,1,2,4,4,2,1,2,2,1,1,3,3,2,1,1,1,5,3,2,6,3,12,10,0,5,15,13,NULL,NULL,NULL,NULL,NULL,NULL
2023-07-25-08:00:43,6749,html-button-response,1,7525,0.0-1.0,1,47,8mjdv5lx,1,NULL,NULL,0,7,2,3,3,1,1,2,2,3,5,1,1,5,5,3,1,1,1,2,4,2,2,2,2,1,1,2,2,3,5,4,1,1,3,4,2,3,13,7,0,15,13,5,NULL,NULL,NULL,NULL,NULL,NULL
2023-07-25-08:01:43,33130,html-button-response,1,33322,0.0-1.0,2,63,5kzxtqtr,1,NULL,NULL,0,12,2,3,3,1,1,2,3,4,5,2,1,4,5,3,4,1,2,1,5,2,1,2,2,1,1,2,2,2,1,2,1,5,1,3,4,4,13,12,0,5,13,15,NULL,NULL,NULL,NULL,NULL,NULL
2023-07-25-08:01:23,20984,html-button-response,1,21219,0.0-1.0,1,38,d0efznpu,1,NULL,NULL,0,13,2,3,3,1,1,2,3,1,5,1,1,4,4,1,3,1,1,3,5,2,1,2,2,4,1,2,2,2,5,3,1,2,3,4,4,4,12,13,0,13,5,15,NULL,NULL,NULL,NULL,NULL,NULL
2023-07-25-08:02:04,11111,html-button-response,1,11398,0.0-1.0,2,55,jl2qx45o,1,NULL,NULL,0,11,2,3,3,1,1,2,2,2,5,2,2,3,4,3,4,1,1,2,3,2,1,2,1,2,1,4,4,1,5,1,1,1,1,2,6,4,11,11,0,15,5,13,NULL,NULL,NULL,NULL,NULL,NULL
2023-07-25-08:01:02,13192,html-button-response,1,14325,0.0-1.0,1,43,8fkk0oft,1,NULL,NULL,0,7,2,3,3,1,1,2,1,2,5,1,1,4,5,3,4,1,2,2,3,2,2,2,1,2,1,3,3,2,1,2,1,3,4,4,4,4,12,7,0,15,13,5,NULL,NULL,NULL,NULL,NULL,NULL
2023-07-25-08:00:45,2992,html-button-response,1,3676,0.0-1.0,1,41,vosxze4j,1,NULL,NULL,0,12,2,3,3,1,1,2,1,2,5,1,1,3,2,1,4,1,1,2,4,2,1,2,2,2,1,2,2,4,5,2,1,1,2,2,2,4,10,11,1,5,15,13,NULL,NULL,NULL,NULL,NULL,NULL
2023-07-25-08:02:40,5509,html-button-response,1,6765,0.0-1.0,2,28,9eygb7cg,1,NULL,NULL,0,9,2,3,3,1,1,2,3,2,5,3,2,3,2,2,4,1,1,2,4,2,1,2,2,1,1,3,3,2,1,3,2,4,3,4,6,3,8,9,0,15,5,13,NULL,NULL,NULL,NULL,NULL,NULL
2023-07-25-08:02:12,59035,html-button-response,1,60555,0.0-1.0,1,59,awgtk0py,1,NULL,NULL,0,13,2,3,3,1,1,2,2,3,5,1,1,4,5,3,4,1,1,1,4,2,1,2,2,2,1,2,2,1,5,1,1,1,1,1,1,4,11,13,0,5,13,15,NULL,NULL,NULL,NULL,NULL,NULL
2023-07-25-08:02:26,99706,html-button-response,1,100217,0.0-1.0,1,42,1vlonekp,1,NULL,NULL,0,11,2,3,3,2,1,2,3,2,5,1,1,3,4,2,4,1,2,4,2,2,1,2,2,2,2,3,3,3,5,3,1,2,2,2,6,3,17,11,0,15,13,5,NULL,NULL,NULL,NULL,NULL,NULL
2023-07-25-08:02:08,41400,html-button-response,1,42630,0.0-1.0,1,39,dzg668vn,1,NULL,NULL,0,10,2,3,3,1,1,2,2,1,5,1,1,5,5,3,1,1,1,4,4,2,2,2,2,1,1,3,3,2,1,2,2,1,4,4,2,4,12,10,0,13,5,15,NULL,NULL,NULL,NULL,NULL,NULL
2023-07-25-08:00:48,12918,html-button-response,1,13709,0.0-1.0,2,58,xxcbczc3,1,NULL,NULL,0,11,2,3,3,1,1,2,2,2,5,1,1,4,2,3,3,1,2,2,5,2,1,2,2,1,1,3,3,1,1,1,1,5,1,1,6,4,11,11,0,13,5,15,NULL,NULL,NULL,NULL,NULL,NULL
2023-07-25-08:02:20,35241,html-button-response,1,35517,0.0-1.0,1,62,nbv2rw5g,1,NULL,NULL,0,8,2,3,3,1,1,2,3,3,5,1,1,4,5,1,3,1,2,4,2,2,2,1,1,4,1,2,2,2,2,3,1,4,4,4,5,3,9,8,0,5,13,15,NULL,NULL,NULL,NULL,NULL,NULL
2023-07-25-08:01:28,34726,html-button-response,1,34976,0.0-1.0,1,40,sqdboobv,1,NULL,NULL,0,20,2,3,3,1,1,2,2,2,5,1,1,4,4,2,3,1,1,2,3,2,1,2,2,1,1,3,3,4,1,1,1,5,3,3,3,4,20,10,10,15,5,13,NULL,NULL,NULL,NULL,NULL,NULL
2023-07-25-08:02:09,58149,html-button-response,1,58309,0.0-1.0,1,46,k3galb7x,1,NULL,NULL,0,9,2,3,3,1,1,2,3,3,5,1,1,4,4,3,3,1,1,3,4,2,1,2,2,1,1,2,2,3,5,3,1,1,4,4,1,5,20,9,0,15,5,13,NULL,NULL,NULL,NULL,NULL,NULL
2023-07-25-08:04:54,48790,html-button-response,1,50312,0.0-1.0,1,32,dnfoskow,1,NULL,NULL,0,9,2,3,3,1,1,2,3,3,5,1,1,4,4,3,4,1,1,1,4,2,1,2,2,1,1,3,3,1,5,3,1,2,1,2,5,3,15,8,1,13,15,5,NULL,NULL,NULL,NULL,NULL,NULL
2023-07-25-08:01:50,20924,html-button-response,1,21534,0.0-1.0,1,48,9b3c3zhk,1,NULL,NULL,0,12,2,3,3,1,1,2,2,3,5,1,1,4,5,3,2,1,2,2,4,2,1,2,2,4,1,3,3,1,1,2,1,4,2,4,4,5,14,12,0,5,15,13,NULL,NULL,NULL,NULL,NULL,NULL
2023-07-25-08:02:22,19660,html-button-response,1,20446,0.0-1.0,1,47,9xmuwe8q,1,NULL,NULL,0,8,2,2,3,1,1,2,3,1,5,3,2,3,4,2,5,1,2,4,2,2,1,2,2,2,1,3,3,2,1,2,1,4,1,2,8,5,10,8,0,13,5,15,NULL,NULL,NULL,NULL,NULL,NULL
2023-07-25-08:00:43,4603,html-button-response,1,4782,0.0-1.0,1,50,fz7ebdn3,1,NULL,NULL,0,9,2,3,3,1,1,2,3,2,5,1,1,4,4,2,2,1,1,3,4,2,1,2,2,1,1,3,3,4,2,4,1,3,3,4,3,3,12,9,0,15,13,5,NULL,NULL,NULL,NULL,NULL,NULL
2023-07-25-08:01:29,34191,html-button-response,1,35051,0.0-1.0,1,62,k01mdhx0,1,NULL,NULL,0,14,2,3,3,2,1,2,3,2,5,1,1,4,4,1,4,1,1,1,3,2,1,2,1,2,1,2,2,2,2,2,1,2,1,4,2,3,13,6,8,15,5,13,NULL,NULL,NULL,NULL,NULL,NULL
2023-07-25-08:02:42,25802,html-button-response,1,26202,0.0-1.0,1,28,trp6u5or,1,NULL,NULL,0,10,2,3,3,1,1,2,2,4,5,1,1,4,4,3,2,1,1,4,4,2,2,1,1,2,1,2,2,3,2,2,2,4,2,4,6,4,12,10,0,5,13,15,NULL,NULL,NULL,NULL,NULL,NULL
2023-07-25-08:03:30,30389,html-button-response,1,31092,0.0-1.0,1,49,95rn3u1g,1,NULL,NULL,0,15,2,3,3,1,1,2,2,3,5,1,1,2,2,3,2,1,2,1,4,2,2,2,2,1,1,2,2,4,5,4,2,1,2,4,3,3,11,15,0,15,5,13,NULL,NULL,NULL,NULL,NULL,NULL
2023-07-25-08:02:33,22088,html-button-response,1,22795,0.0-1.0,2,48,f1o4rc1b,1,NULL,NULL,0,10,2,3,3,1,1,2,4,3,5,1,1,3,3,3,4,1,2,4,3,2,2,1,2,1,1,3,2,2,2,3,1,4,3,4,4,3,13,10,0,13,5,15,NULL,NULL,NULL,NULL,NULL,NULL
2023-07-25-08:05:36,48026,html-button-response,1,48353,0.0-1.0,1,61,scdnjddv,1,NULL,NULL,0,12,2,3,3,1,1,2,2,2,5,1,1,4,5,3,5,1,2,1,2,2,1,2,1,3,1,3,3,1,1,1,1,4,2,4,7,4,10,12,0,15,5,13,NULL,NULL,NULL,NULL,NULL,NULL
2023-07-25-08:38:29,28650,html-button-response,1,30093,0.0-1.0,1,39,h2968f1h,1,NULL,NULL,0,8,2,3,3,1,1,2,3,1,4,1,1,4,4,1,4,1,1,4,4,2,1,2,2,4,1,3,3,3,5,4,2,2,2,2,2,3,15,8,0,15,5,13,NULL,NULL,NULL,NULL,NULL,NULL
2023-07-26-11:00:31,1854,html-button-response,1,2513,0.0-1.0,1,28,z04pr9ku,1,NULL,NULL,0,10,3,3,4,1,1,2,2,2,4,1,1,3,4,2,4,1,1,4,4,1,1,2,2,3,1,4,4,2,1,2,1,4,2,2,8,3,10,10,0,13,15,5,NULL,NULL,NULL,NULL,NULL,NULL
2023-07-26-11:01:17,2558,html-button-response,1,2923,0.0-1.0,2,22,4nh4e88e,1,NULL,NULL,0,20,3,3,4,1,1,2,3,1,5,1,1,4,3,2,3,1,1,2,3,2,1,2,2,1,1,3,3,3,3,3,1,3,3,3,6,1,20,11,9,13,5,15,NULL,NULL,NULL,NULL,NULL,NULL
2023-07-26-11:00:33,2568,html-button-response,1,2866,0.0-1.0,1,19,oh8pxlo1,1,NULL,NULL,0,10,3,3,4,1,1,2,2,2,5,1,1,4,4,3,3,1,1,3,4,2,1,2,2,1,1,3,3,1,5,1,1,1,2,3,1,4,11,10,0,13,15,5,NULL,NULL,NULL,NULL,NULL,NULL
2023-07-26-11:00:38,3133,html-button-response,1,3855,0.0-1.0,1,49,w0cf5556,1,NULL,NULL,0,8,3,3,4,1,1,2,3,1,5,1,1,4,4,3,4,1,1,4,4,2,1,2,2,1,1,3,3,4,2,4,1,4,4,2,3,2,15,16,-8,5,15,13,NULL,NULL,NULL,NULL,NULL,NULL
2023-07-26-11:00:41,6902,html-button-response,1,7386,0.0-1.0,2,41,zrorzell,1,NULL,NULL,0,10,3,3,4,1,1,2,2,1,4,1,1,2,3,2,4,1,2,1,1,1,1,2,2,1,1,2,2,2,2,2,1,2,3,3,6,4,7,9,1,13,5,15,NULL,NULL,NULL,NULL,NULL,NULL
2023-07-26-11:00:44,5987,html-button-response,1,7322,0.0-1.0,1,45,h7da9566,1,NULL,NULL,0,9,3,3,4,1,1,2,2,2,5,1,1,5,5,3,2,1,2,4,4,2,1,2,2,1,1,2,2,1,3,4,1,3,3,3,1,4,5,9,0,13,5,15,NULL,NULL,NULL,NULL,NULL,NULL
2023-07-26-11:00:52,9652,html-button-response,1,10471,0.0-1.0,1,32,p95affqa,1,NULL,NULL,0,13,3,3,4,1,1,2,3,1,5,1,1,4,5,2,3,1,1,4,3,2,1,1,2,1,1,2,3,3,1,2,1,4,4,3,2,3,15,13,0,15,13,5,NULL,NULL,NULL,NULL,NULL,NULL
2023-07-26-11:00:45,2099,html-button-response,1,3735,0.0-1.0,1,30,g1ke3h92,1,NULL,NULL,0,13,3,3,4,2,1,2,5,3,3,2,1,4,5,3,4,1,2,3,1,2,1,2,2,3,1,3,3,1,3,1,1,2,1,1,9,1,17,12,1,13,5,15,NULL,NULL,NULL,NULL,NULL,NULL
2023-07-26-11:00:43,7618,html-button-response,1,7846,0.0-1.0,1,33,7za500us,1,NULL,NULL,0,14,3,3,4,2,1,2,2,3,5,4,1,4,3,2,1,1,1,1,2,2,1,2,2,3,1,2,2,5,4,3,1,2,5,5,2,4,15,14,0,13,15,5,NULL,NULL,NULL,NULL,NULL,NULL
2023-07-26-11:00:54,1699,html-button-response,1,1867,0.0-1.0,3,28,optsbtjq,1,NULL,NULL,0,11,3,3,4,1,1,2,3,1,4,1,1,3,4,3,4,1,1,2,4,2,1,2,2,2,3,3,3,3,2,3,1,3,2,3,4,1,11,11,0,5,15,13,NULL,NULL,NULL,NULL,NULL,NULL
2023-07-26-11:00:45,2661,html-button-response,1,3804,0.0-1.0,1,46,tzs5q5p0,1,NULL,NULL,0,10,3,3,4,1,1,2,4,2,5,1,1,4,4,3,4,1,1,2,2,2,1,2,1,1,1,3,3,2,3,2,1,1,4,4,2,2,14,10,0,5,15,13,NULL,NULL,NULL,NULL,NULL,NULL
2023-07-26-11:00:33,2450,html-button-response,1,2809,0.0-1.0,2,40,ja266fml,1,NULL,NULL,0,14,3,3,4,1,1,2,3,2,4,1,1,4,5,3,3,1,1,2,2,2,2,2,2,2,3,1,1,3,1,2,1,4,4,5,1,3,20,6,8,5,13,15,NULL,NULL,NULL,NULL,NULL,NULL
2023-07-26-11:01:17,1640,html-button-response,1,1644,0.0-1.0,1,47,svsy5q4f,1,NULL,NULL,0,12,3,3,4,2,1,2,5,1,5,4,1,3,4,1,5,1,1,1,3,2,1,2,2,4,1,2,2,2,3,2,1,1,3,4,5,4,11,12,0,15,5,13,NULL,NULL,NULL,NULL,NULL,NULL
2023-07-26-11:00:31,1336,html-button-response,1,1569,0.0-1.0,1,38,dntleoxm,1,NULL,NULL,0,10,3,3,4,1,1,2,2,1,5,1,1,2,5,3,3,1,2,4,2,2,1,2,2,4,1,2,2,2,5,2,1,1,2,1,1,3,8,10,0,15,5,13,NULL,NULL,NULL,NULL,NULL,NULL
2023-07-26-11:00:39,3593,html-button-response,1,4761,0.0-1.0,2,54,5u8xl6z9,1,NULL,NULL,0,8,3,3,4,1,1,2,2,2,5,1,1,4,4,2,2,1,1,1,3,2,1,2,2,2,1,2,2,4,2,4,1,3,3,3,4,3,9,12,-4,5,13,15,NULL,NULL,NULL,NULL,NULL,NULL
2023-07-26-11:00:49,9644,html-button-response,1,10575,0.0-1.0,1,54,nps5urlg,1,NULL,NULL,0,8,3,3,4,2,1,2,2,2,5,4,2,3,4,2,4,1,2,4,3,2,1,2,1,1,1,2,2,3,5,3,1,2,3,3,4,4,14,8,0,13,15,5,NULL,NULL,NULL,NULL,NULL,NULL
2023-07-26-11:01:25,25558,html-button-response,1,25804,0.0-1.0,1,30,qxwo5ebb,1,NULL,NULL,0,6,3,3,4,1,1,2,4,4,5,1,1,3,4,1,4,1,1,2,1,2,1,2,2,1,1,3,3,1,5,2,1,1,1,1,1,1,11,6,0,13,5,15,NULL,NULL,NULL,NULL,NULL,NULL
2023-07-26-11:00:33,3944,html-button-response,1,4237,0.0-1.0,1,53,glv2d8yb,1,NULL,NULL,0,5,3,3,4,1,1,2,1,1,5,1,1,5,4,2,2,1,1,1,4,2,2,1,2,2,1,2,2,3,3,2,1,3,5,5,1,3,8,5,0,13,15,5,NULL,NULL,NULL,NULL,NULL,NULL
2023-07-26-11:00:52,7553,html-button-response,1,8129,0.0-1.0,2,45,xahwplk9,1,NULL,NULL,0,10,3,3,4,1,1,2,3,1,5,2,1,4,4,3,4,1,2,3,4,2,2,1,2,1,1,2,2,4,3,4,1,1,4,2,4,3,11,10,0,15,13,5,NULL,NULL,NULL,NULL,NULL,NULL
2023-07-26-11:01:38,17379,html-button-response,1,17565,0.0-1.0,1,40,xwndqfb5,1,NULL,NULL,0,8,3,3,4,1,1,2,3,3,5,1,1,3,5,3,4,1,1,2,1,2,1,2,1,2,1,3,3,1,4,1,1,3,2,2,5,3,8,8,0,13,15,5,NULL,NULL,NULL,NULL,NULL,NULL
2023-07-26-11:01:39,58566,html-button-response,1,59329,0.0-1.0,1,47,thbjo275,1,NULL,NULL,0,9,3,3,4,1,1,2,2,1,5,1,1,5,4,2,2,1,2,2,3,2,1,2,2,1,1,3,3,2,3,3,1,2,4,4,2,3,12,11,-2,13,15,5,NULL,NULL,NULL,NULL,NULL,NULL
2023-07-26-11:01:19,18749,html-button-response,1,19395,0.0-1.0,1,62,fs77uqc9,1,NULL,NULL,0,14,3,3,4,1,1,2,3,2,5,1,1,4,5,2,4,1,2,2,3,2,2,1,2,1,1,3,3,2,4,2,1,3,1,3,5,4,17,7,7,15,13,5,NULL,NULL,NULL,NULL,NULL,NULL
2023-07-26-11:02:21,2723,html-button-response,1,3497,0.0-1.0,2,52,39eowce2,1,NULL,NULL,0,20,3,3,4,1,1,2,2,2,5,1,1,3,3,2,4,1,2,2,2,1,1,2,2,1,1,2,2,3,1,1,1,1,1,3,4,3,20,8,12,13,15,5,NULL,NULL,NULL,NULL,NULL,NULL
2023-07-26-11:01:05,9071,html-button-response,1,11235,0.0-1.0,1,53,k8o60ucq,1,NULL,NULL,0,13,3,3,4,2,1,2,2,2,5,4,1,4,4,3,2,3,1,2,2,2,1,1,2,4,2,3,3,3,5,3,2,1,4,4,3,4,11,13,0,5,15,13,NULL,NULL,NULL,NULL,NULL,NULL
2023-07-26-11:00:54,5569,html-button-response,1,6006,0.0-1.0,1,38,68691xk0,1,NULL,NULL,0,9,3,3,4,2,1,2,4,2,5,1,1,4,4,2,3,1,1,4,4,2,1,2,1,3,1,3,3,3,4,3,1,3,3,3,5,3,20,9,0,5,13,15,NULL,NULL,NULL,NULL,NULL,NULL
2023-07-26-11:00:43,3610,html-button-response,1,4267,0.0-1.0,1,45,jxg9k15w,1,NULL,NULL,0,8,3,3,4,1,1,2,4,1,5,1,1,4,4,2,4,1,1,1,4,2,1,2,2,1,1,3,3,1,5,4,2,1,1,3,3,4,13,8,0,13,15,5,NULL,NULL,NULL,NULL,NULL,NULL
2023-07-26-11:00:46,5557,html-button-response,1,5611,0.0-1.0,1,42,fv9ttwbe,1,NULL,NULL,0,9,3,3,4,3,2,2,3,2,4,1,1,3,4,3,3,1,1,1,3,2,1,2,2,1,1,3,3,2,5,4,1,2,3,3,6,3,17,9,0,13,5,15,NULL,NULL,NULL,NULL,NULL,NULL
2023-07-26-11:02:15,65534,html-button-response,1,66387,0.0-1.0,1,48,2l4hz2xx,1,NULL,NULL,0,7,3,3,4,1,1,2,2,3,5,1,1,5,4,3,2,1,1,1,4,2,1,2,2,1,1,3,3,4,4,4,1,4,2,2,5,3,11,7,0,5,13,15,NULL,NULL,NULL,NULL,NULL,NULL
2023-07-26-11:03:14,24585,html-button-response,1,25344,0.0-1.0,1,55,8zyvgr83,1,NULL,NULL,0,7,3,3,4,1,1,2,3,3,5,1,1,4,5,2,4,1,2,4,4,2,1,2,1,1,1,3,3,1,4,1,2,3,1,2,7,5,18,7,0,13,15,5,NULL,NULL,NULL,NULL,NULL,NULL
2023-07-26-11:01:30,32682,html-button-response,1,34429,0.0-1.0,2,54,ug3nzvt5,1,NULL,NULL,0,7,3,3,4,1,1,2,4,3,5,1,1,4,4,2,4,1,2,4,3,2,1,2,1,2,1,3,3,1,4,2,1,3,2,2,6,3,9,7,0,5,13,15,NULL,NULL,NULL,NULL,NULL,NULL
2023-07-26-11:01:29,17512,html-button-response,1,18325,0.0-1.0,2,55,v92b1car,1,NULL,NULL,0,13,3,3,4,1,1,2,2,2,5,1,1,5,2,2,2,1,1,2,3,2,1,2,1,2,1,4,4,1,5,4,1,1,2,2,6,4,13,12,1,5,15,13,NULL,NULL,NULL,NULL,NULL,NULL
2023-07-26-11:01:07,6314,html-button-response,1,6561,0.0-1.0,1,37,hq6rgz9e,1,NULL,NULL,0,7,3,3,4,1,1,2,2,2,5,1,1,4,4,2,4,1,1,2,5,2,1,2,2,2,1,3,3,1,5,2,1,2,2,3,1,5,12,7,0,5,15,13,NULL,NULL,NULL,NULL,NULL,NULL
2023-07-26-11:01:24,8367,html-button-response,1,9067,0.0-1.0,1,48,7ar5obm5,1,NULL,NULL,0,10,3,3,4,1,1,2,2,3,5,1,1,5,5,3,2,1,2,1,5,2,1,2,2,4,1,3,3,1,4,4,1,2,1,4,4,5,13,10,0,15,13,5,NULL,NULL,NULL,NULL,NULL,NULL
2023-07-26-11:02:16,6618,html-button-response,1,7982,0.0-1.0,3,30,3ddkny92,1,NULL,NULL,0,9,3,3,4,1,1,2,3,3,5,1,1,4,5,3,2,1,1,1,4,2,1,2,2,1,1,3,3,1,1,2,1,4,2,2,5,3,13,8,1,15,5,13,NULL,NULL,NULL,NULL,NULL,NULL
2023-07-26-11:01:32,23356,html-button-response,1,24595,0.0-1.0,2,57,vlt5pmnb,1,NULL,NULL,0,10,3,3,4,1,1,2,3,4,5,1,1,4,4,3,4,1,1,4,2,2,1,2,2,2,1,3,3,2,4,3,1,2,1,2,6,3,12,10,0,5,13,15,NULL,NULL,NULL,NULL,NULL,NULL
2023-07-26-11:02:02,35399,html-button-response,1,35794,0.0-1.0,2,58,fqhdu3ov,1,NULL,NULL,0,4,3,3,4,4,2,2,3,2,5,2,1,4,4,2,4,1,1,1,3,2,1,2,2,1,1,2,2,1,5,4,1,3,2,3,4,3,12,14,-10,13,15,5,NULL,NULL,NULL,NULL,NULL,NULL
2023-07-26-11:01:28,8832,html-button-response,1,9559,0.0-1.0,1,59,agv5ozbs,1,NULL,NULL,0,11,3,3,4,1,1,2,2,2,5,1,1,3,4,1,5,1,2,4,3,2,2,1,2,1,1,3,3,1,4,1,1,3,2,2,3,5,7,11,0,13,5,15,NULL,NULL,NULL,NULL,NULL,NULL
2023-07-26-11:01:10,12196,html-button-response,1,13028,0.0-1.0,1,54,6g980meb,1,NULL,NULL,0,6,3,3,4,1,1,2,3,3,5,1,1,3,4,2,4,1,1,2,4,2,1,2,2,1,1,3,3,2,5,3,1,3,1,1,6,3,14,6,0,15,5,13,NULL,NULL,NULL,NULL,NULL,NULL
2023-07-26-11:03:55,91770,html-button-response,1,92304,0.0-1.0,1,32,hhqqnbvn,1,NULL,NULL,0,8,3,3,4,3,1,2,4,1,4,4,1,4,4,3,4,1,2,4,3,1,1,2,2,2,1,2,2,3,3,4,1,3,2,3,6,4,12,8,0,15,13,5,NULL,NULL,NULL,NULL,NULL,NULL
2023-07-26-11:00:59,12549,html-button-response,1,13322,0.0-1.0,1,34,mfupwhb4,1,NULL,NULL,0,10,3,3,4,1,1,2,2,2,5,1,1,5,4,1,2,1,2,2,4,2,1,2,2,1,1,2,2,1,4,4,1,2,2,2,3,3,9,10,0,15,5,13,NULL,NULL,NULL,NULL,NULL,NULL
2023-07-26-11:01:30,16410,html-button-response,1,16644,0.0-1.0,1,73,069onwdm,1,NULL,NULL,0,10,3,3,4,1,1,2,4,1,5,2,1,4,4,2,4,1,2,4,4,2,1,2,2,1,1,3,2,3,4,3,1,3,1,2,5,3,11,10,0,15,13,5,NULL,NULL,NULL,NULL,NULL,NULL
2023-07-26-11:01:23,13039,html-button-response,1,13523,0.0-1.0,2,41,opsa8p4b,1,NULL,NULL,0,10,3,2,4,1,1,2,4,3,5,1,1,4,5,2,4,1,1,2,2,2,1,2,2,1,1,3,3,1,4,2,1,4,1,3,3,4,9,10,0,5,15,13,NULL,NULL,NULL,NULL,NULL,NULL
2023-07-26-11:05:32,98280,html-button-response,1,99080,0.0-1.0,1,42,8wpqwe3c,1,NULL,NULL,0,14,3,3,4,1,1,2,1,4,5,1,1,3,3,2,4,1,1,2,5,2,1,2,2,4,1,3,2,1,5,1,1,1,3,5,1,5,15,14,0,13,15,5,NULL,NULL,NULL,NULL,NULL,NULL
2023-07-26-11:04:35,50155,html-button-response,1,50957,0.0-1.0,2,57,ljgn4x52,1,NULL,NULL,0,10,3,3,4,1,1,2,4,3,5,1,1,4,4,1,5,1,1,2,2,2,1,2,2,2,1,2,2,1,5,4,1,1,1,1,4,3,13,10,0,5,13,15,NULL,NULL,NULL,NULL,NULL,NULL
2023-07-26-11:12:36,4558,html-button-response,1,5234,0.0-1.0,2,23,oasd6p2c,1,NULL,NULL,0,15,3,3,4,1,1,2,3,2,5,1,1,4,5,2,4,1,1,2,3,2,1,2,2,2,1,3,3,2,4,2,1,2,1,2,4,3,20,13,2,15,13,5,NULL,NULL,NULL,NULL,NULL,NULL
2023-07-26-11:01:28,15920,html-button-response,1,16258,0.0-1.0,1,44,emy4prtt,1,NULL,NULL,0,9,3,3,4,1,1,2,3,1,5,1,1,5,5,2,1,1,1,4,5,2,1,2,1,2,1,2,1,1,5,3,1,3,2,3,3,4,13,9,0,15,5,13,NULL,NULL,NULL,NULL,NULL,NULL
2023-07-26-11:01:03,7722,html-button-response,1,9390,0.0-1.0,1,55,paec0xyf,1,NULL,NULL,0,8,4,3,4,1,1,2,4,3,5,1,1,4,5,3,4,1,2,2,4,2,1,2,2,1,1,2,2,2,5,4,1,1,2,2,7,4,8,7,1,5,15,13,NULL,NULL,NULL,NULL,NULL,NULL
2023-07-26-11:14:27,7784,html-button-response,1,8169,0.0-1.0,2,37,56whjpqb,1,NULL,NULL,0,8,3,3,4,2,1,2,2,3,4,1,1,3,3,2,4,1,1,4,3,2,1,2,2,1,1,3,3,3,4,3,1,2,3,3,5,3,7,8,0,5,13,15,NULL,NULL,NULL,NULL,NULL,NULL
2023-07-26-11:15:00,5820,html-button-response,1,6803,0.0-1.0,1,49,w5pvk0n8,1,NULL,NULL,0,12,3,3,4,1,1,2,2,1,5,1,1,4,5,1,4,1,2,3,4,2,1,2,2,1,1,2,2,1,4,3,1,3,2,3,6,5,16,12,0,5,15,13,NULL,NULL,NULL,NULL,NULL,NULL
2023-07-26-11:00:30,1659,html-button-response,1,3243,0.0-1.0,1,48,rh7e20m5,1,NULL,NULL,0,20,3,3,4,2,1,2,3,1,5,3,1,3,3,1,4,1,1,4,2,2,1,2,2,2,1,3,3,3,1,2,1,3,2,1,5,3,20,10,10,15,13,5,NULL,NULL,NULL,NULL,NULL,NULL
2023-07-26-13:58:03,9547,html-button-response,1,10551,0.0-1.0,1,66,xlm2j7cl,1,NULL,NULL,0,8,3,3,5,1,1,2,2,4,5,1,1,3,3,2,4,1,2,3,3,2,1,1,1,1,1,2,2,3,2,3,1,3,4,4,4,3,8,8,0,5,15,13,NULL,NULL,NULL,NULL,NULL,NULL
2023-07-27-14:00:49,2797,html-button-response,1,3981,0.0-1.0,1,32,war808ce,1,NULL,NULL,0,15,4,3,5,1,1,2,3,2,5,1,1,3,5,2,3,1,1,2,3,2,1,1,2,1,1,2,2,2,3,2,1,4,3,3,2,3,13,15,0,5,13,15,NULL,NULL,NULL,NULL,NULL,NULL
2023-07-27-14:00:04,5675,html-button-response,1,6338,0.0-1.0,2,44,7t0o0abu,1,NULL,NULL,0,10,4,3,5,1,1,2,4,3,5,1,1,5,5,3,3,1,2,3,2,2,2,2,1,1,1,3,3,1,3,4,2,4,1,2,4,2,9,10,0,13,5,15,NULL,NULL,NULL,NULL,NULL,NULL
2023-07-27-14:00:33,2400,html-button-response,1,3476,0.0-1.0,1,36,7hu542j8,1,NULL,NULL,0,9,4,3,5,1,1,2,2,1,5,1,1,4,2,2,4,1,2,3,4,2,1,2,2,2,1,3,2,4,5,4,1,3,4,5,2,1,15,9,0,13,5,15,NULL,NULL,NULL,NULL,NULL,NULL
2023-07-27-14:00:54,5140,html-button-response,1,5926,0.0-1.0,1,47,yojdz60p,1,NULL,NULL,0,13,4,3,5,1,1,2,3,3,5,1,1,5,3,2,3,1,1,2,3,2,1,2,2,2,1,3,3,3,2,3,2,3,3,3,6,2,20,13,0,5,13,15,NULL,NULL,NULL,NULL,NULL,NULL
2023-07-27-14:00:43,4231,html-button-response,1,4693,0.0-1.0,2,47,acw083vc,1,NULL,NULL,0,11,4,3,5,1,1,2,3,1,5,2,1,5,4,2,3,1,2,2,4,2,1,2,2,1,1,3,3,2,5,3,1,2,1,2,5,4,10,11,0,13,5,15,NULL,NULL,NULL,NULL,NULL,NULL
2023-07-27-14:00:48,17474,html-button-response,1,17982,0.0-1.0,1,40,821xuehl,1,NULL,NULL,0,9,4,3,5,3,1,2,1,4,3,1,1,5,5,3,2,1,1,2,1,2,1,2,2,1,1,3,3,5,1,5,3,3,5,4,7,5,13,11,-2,15,13,5,NULL,NULL,NULL,NULL,NULL,NULL
2023-07-27-14:00:55,7048,html-button-response,1,7640,0.0-1.0,1,60,0v8we43j,1,NULL,NULL,0,11,4,3,5,1,1,2,3,2,3,1,1,3,3,2,3,1,1,2,3,2,1,2,2,1,1,3,3,3,2,1,1,3,3,3,5,3,20,11,0,13,5,15,NULL,NULL,NULL,NULL,NULL,NULL
2023-07-27-14:00:45,5039,html-button-response,1,5758,0.0-1.0,1,30,62zfscuw,1,NULL,NULL,0,10,4,3,5,1,1,2,4,4,5,1,1,3,4,1,5,1,1,2,1,2,1,2,2,1,1,3,3,1,2,1,1,4,1,1,1,4,12,10,0,13,5,15,NULL,NULL,NULL,NULL,NULL,NULL
2023-07-27-14:00:38,3173,html-button-response,1,3836,0.0-1.0,2,51,u4ps03am,1,NULL,NULL,0,11,4,3,5,2,1,2,4,4,4,4,4,4,4,3,4,1,2,2,2,2,1,2,2,1,1,3,3,2,2,2,1,4,2,2,6,3,12,9,2,13,15,5,NULL,NULL,NULL,NULL,NULL,NULL
2023-07-27-14:00:41,4743,html-button-response,1,5475,0.0-1.0,1,39,w4mp708y,1,NULL,NULL,0,11,4,3,5,1,1,2,4,2,5,1,1,3,5,2,5,3,1,3,3,2,1,2,2,2,1,3,3,1,2,2,1,4,2,3,8,4,14,11,0,5,15,13,NULL,NULL,NULL,NULL,NULL,NULL
2023-07-27-14:01:03,7082,html-button-response,1,7344,0.0-1.0,1,38,lg23zblv,1,NULL,NULL,0,12,4,3,5,2,1,2,2,2,5,1,1,3,4,2,4,1,2,4,3,2,1,2,2,1,1,3,3,2,3,2,1,4,2,3,4,4,9,12,0,13,15,5,NULL,NULL,NULL,NULL,NULL,NULL
2023-07-27-14:00:40,2083,html-button-response,1,2450,0.0-1.0,2,32,16gtx5a1,1,NULL,NULL,0,8,4,3,5,1,1,2,3,2,4,1,1,3,3,2,4,1,2,4,3,2,4,1,1,1,1,3,3,2,2,2,1,2,4,4,4,3,7,8,0,13,5,15,NULL,NULL,NULL,NULL,NULL,NULL
2023-07-27-14:01:01,10681,html-button-response,1,12475,0.0-1.0,1,42,7tk9a5xu,1,NULL,NULL,0,9,4,3,5,1,1,2,3,1,5,2,1,5,5,3,4,1,1,4,4,2,1,1,2,4,1,3,3,1,1,1,1,4,1,2,5,4,11,9,0,15,5,13,NULL,NULL,NULL,NULL,NULL,NULL
2023-07-27-14:00:54,5251,html-button-response,1,7607,0.0-1.0,1,37,a6tw7uxd,1,NULL,NULL,0,11,4,3,5,1,1,2,1,4,5,1,1,5,4,3,2,1,2,2,4,2,1,2,2,1,1,3,3,2,2,3,1,1,3,2,2,2,12,11,0,13,5,15,NULL,NULL,NULL,NULL,NULL,NULL
2023-07-27-14:00:38,3322,html-button-response,1,3796,0.0-1.0,1,57,2gzq1ypo,1,NULL,NULL,0,9,4,3,5,2,1,1,2,2,2,1,1,2,2,1,2,1,1,2,2,1,1,1,1,3,2,2,2,2,1,2,2,2,2,2,5,4,12,9,0,15,13,5,NULL,NULL,NULL,NULL,NULL,NULL
2023-07-27-14:01:13,15419,html-button-response,1,16889,0.0-1.0,1,45,cfoj707e,1,NULL,NULL,0,12,4,3,5,1,1,2,1,2,5,1,1,4,4,3,2,1,2,4,4,2,1,2,2,2,1,3,3,1,3,1,1,4,1,1,5,5,12,12,0,15,5,13,NULL,NULL,NULL,NULL,NULL,NULL
2023-07-27-14:00:50,5141,html-button-response,1,5373,0.0-1.0,1,37,c935bkaa,1,NULL,NULL,0,8,4,3,5,4,1,2,2,3,2,4,1,2,4,3,4,1,1,1,2,2,1,2,2,3,1,2,2,2,2,4,1,2,4,4,3,2,8,8,0,13,15,5,NULL,NULL,NULL,NULL,NULL,NULL
2023-07-27-14:00:50,4582,html-button-response,1,5474,0.0-1.0,1,39,wwg5xd2g,1,NULL,NULL,0,13,4,3,5,1,1,2,2,2,4,1,1,4,4,2,3,1,1,2,3,2,1,2,2,2,1,3,3,2,2,2,2,3,3,3,5,3,12,13,0,15,5,13,NULL,NULL,NULL,NULL,NULL,NULL
2023-07-27-14:01:26,22121,html-button-response,1,23236,0.0-1.0,1,51,3jadv377,1,NULL,NULL,0,7,4,3,5,1,1,2,2,4,5,1,1,4,5,1,4,1,1,4,3,2,1,2,2,1,1,3,3,1,2,2,1,4,2,4,6,3,8,7,0,5,15,13,NULL,NULL,NULL,NULL,NULL,NULL
2023-07-27-14:01:11,11138,html-button-response,1,11953,0.0-1.0,2,47,qkrok16n,1,NULL,NULL,0,11,4,3,5,1,1,2,3,4,5,1,1,2,2,2,4,1,1,2,2,2,1,2,1,1,1,3,3,1,2,1,1,4,1,2,7,5,12,11,0,5,13,15,NULL,NULL,NULL,NULL,NULL,NULL
2023-07-27-14:00:56,11502,html-button-response,1,11671,0.0-1.0,1,60,oybuf9ue,1,NULL,NULL,0,9,4,3,5,2,1,2,2,3,5,1,1,5,5,3,4,1,1,1,4,2,2,1,2,3,1,3,2,3,2,4,1,4,1,1,6,4,11,9,0,13,15,5,NULL,NULL,NULL,NULL,NULL,NULL
2023-07-27-14:02:07,44177,html-button-response,1,45179,0.0-1.0,1,41,9khj9pth,1,NULL,NULL,0,13,4,3,5,1,1,2,5,2,5,1,1,3,5,3,5,1,2,3,4,2,1,2,2,2,1,3,1,5,5,2,1,4,1,3,2,4,9,13,0,15,5,13,NULL,NULL,NULL,NULL,NULL,NULL
2023-07-27-14:01:04,18047,html-button-response,1,18479,0.0-1.0,1,41,8la90mrj,1,NULL,NULL,0,9,4,3,5,3,1,2,4,1,4,4,1,3,4,3,4,1,1,2,5,2,1,2,2,1,1,3,2,3,2,2,1,3,1,3,6,4,12,9,0,5,15,13,NULL,NULL,NULL,NULL,NULL,NULL
2023-07-27-14:00:58,2378,html-button-response,1,3161,0.0-1.0,1,66,pmubxm82,1,NULL,NULL,0,13,4,3,5,1,1,2,3,4,5,1,1,4,5,3,4,1,2,1,5,2,2,1,2,2,1,4,4,1,2,4,2,3,1,2,5,4,14,13,0,15,13,5,NULL,NULL,NULL,NULL,NULL,NULL
2023-07-27-14:01:25,8489,html-button-response,1,8994,0.0-1.0,2,27,okj05o4g,1,NULL,NULL,0,12,4,3,5,1,1,2,4,4,5,1,1,4,2,2,4,1,1,3,2,2,1,2,2,1,1,2,2,4,4,2,1,4,2,2,4,4,10,12,0,15,13,5,NULL,NULL,NULL,NULL,NULL,NULL
2023-07-27-14:00:52,1844,html-button-response,1,3702,0.0-1.0,1,48,gbxg1y4r,1,NULL,NULL,0,12,4,3,5,1,1,2,2,3,5,1,1,5,5,3,1,1,2,1,5,2,1,2,2,4,1,3,3,2,2,4,1,4,2,5,4,5,14,12,0,15,13,5,NULL,NULL,NULL,NULL,NULL,NULL
2023-07-27-14:00:55,6939,html-button-response,1,8046,0.0-1.0,1,50,g3m8ayx5,1,NULL,NULL,0,10,4,3,5,1,1,2,4,3,5,1,1,4,4,3,2,1,1,1,4,2,2,2,2,4,1,3,2,1,2,2,1,3,2,3,2,4,14,10,0,5,15,13,NULL,NULL,NULL,NULL,NULL,NULL
2023-07-27-14:01:30,7997,html-button-response,1,8524,0.0-1.0,2,45,wftb864g,1,NULL,NULL,0,9,4,3,5,1,1,2,3,2,5,1,1,4,3,2,3,1,2,3,3,2,1,2,2,2,1,3,3,3,1,3,1,3,3,3,6,3,12,9,0,5,15,13,NULL,NULL,NULL,NULL,NULL,NULL
2023-07-27-14:01:04,11189,html-button-response,1,12085,0.0-1.0,1,48,zzpvx5zl,1,NULL,NULL,0,11,4,3,5,1,1,2,2,4,5,1,1,3,4,2,4,1,1,4,4,2,2,1,2,2,1,3,3,1,2,2,1,2,1,5,1,3,11,11,0,15,13,5,NULL,NULL,NULL,NULL,NULL,NULL
2023-07-27-14:01:11,15419,html-button-response,1,15800,0.0-1.0,2,53,yvlpqh56,1,NULL,NULL,0,13,4,3,5,1,1,2,2,4,5,2,1,3,3,1,4,1,2,3,2,2,1,2,2,1,1,3,3,1,3,1,1,3,1,2,2,3,9,13,0,13,5,15,NULL,NULL,NULL,NULL,NULL,NULL
2023-07-27-14:02:10,53101,html-button-response,1,53334,0.0-1.0,1,51,t81otcy9,1,NULL,NULL,0,8,4,3,5,1,1,2,4,3,5,1,1,3,4,2,5,1,1,1,4,2,1,2,2,1,1,3,3,1,3,2,1,3,1,2,4,3,11,8,0,13,5,15,NULL,NULL,NULL,NULL,NULL,NULL
2023-07-27-14:01:51,31997,html-button-response,1,32680,0.0-1.0,2,42,ly2uzlf3,1,NULL,NULL,0,9,4,3,5,1,1,2,2,3,5,1,1,5,4,2,2,1,2,1,4,2,1,2,2,1,1,3,3,1,2,2,1,4,1,2,6,4,12,9,0,15,5,13,NULL,NULL,NULL,NULL,NULL,NULL
2023-07-27-14:00:45,3871,html-button-response,1,4256,0.0-1.0,1,42,07qv0acw,1,NULL,NULL,0,7,4,3,5,1,1,2,3,3,5,1,1,4,4,3,4,1,2,3,4,2,3,1,2,1,1,3,3,3,2,2,2,5,4,3,3,3,14,13,-6,15,5,13,NULL,NULL,NULL,NULL,NULL,NULL
2023-07-27-14:00:52,5418,html-button-response,1,6529,0.0-1.0,1,47,5xk2e7ww,1,NULL,NULL,0,5,4,3,5,1,1,2,3,2,5,1,1,4,4,3,4,1,2,3,4,2,1,2,2,2,1,2,2,1,3,2,1,2,1,1,6,2,9,5,0,5,15,13,NULL,NULL,NULL,NULL,NULL,NULL
2023-07-27-14:09:36,1652,html-button-response,1,1669,0.0-1.0,2,22,kfug2vvk,1,NULL,NULL,0,20,4,2,5,3,2,2,4,3,4,3,4,3,3,2,3,3,2,3,4,2,3,2,2,3,3,3,3,3,3,3,2,3,3,3,4,3,20,11,9,15,5,13,NULL,NULL,NULL,NULL,NULL,NULL
2023-07-27-14:00:34,2645,html-button-response,1,3711,0.0-1.0,2,58,tu12xteg,1,NULL,NULL,0,9,4,3,5,1,1,2,3,3,5,1,1,4,4,1,4,1,2,4,1,2,1,2,2,2,1,3,3,1,2,3,1,5,3,3,6,4,12,9,0,5,13,15,NULL,NULL,NULL,NULL,NULL,NULL
2023-07-27-14:01:05,7023,html-button-response,1,7983,0.0-1.0,1,56,q93nfa9g,1,NULL,NULL,0,12,4,3,5,1,1,2,2,1,5,1,1,3,4,1,4,1,1,2,1,2,2,1,2,1,1,3,3,1,5,1,1,3,2,3,2,5,8,12,0,5,13,15,NULL,NULL,NULL,NULL,NULL,NULL
2023-07-27-14:04:20,11529,html-button-response,1,12199,0.0-1.0,1,61,f5zbwl2d,1,NULL,NULL,0,10,4,3,5,1,1,2,4,2,5,2,1,4,5,3,3,1,1,1,5,2,1,1,2,1,1,4,4,1,3,3,1,3,1,1,7,4,13,10,0,5,15,13,NULL,NULL,NULL,NULL,NULL,NULL
2023-07-27-14:01:07,25469,html-button-response,1,25872,0.0-1.0,1,45,nja3clo2,1,NULL,NULL,0,8,4,3,5,1,1,2,2,2,5,1,1,4,3,3,3,1,1,4,3,2,1,2,2,1,1,2,2,2,2,2,1,4,1,4,3,5,11,8,0,5,13,15,NULL,NULL,NULL,NULL,NULL,NULL
2023-07-27-14:01:56,33360,html-button-response,1,33574,0.0-1.0,1,48,z4esmot2,1,NULL,NULL,0,11,4,3,5,1,1,2,2,2,5,1,1,4,4,3,2,1,1,4,4,2,1,2,2,1,1,3,3,1,2,2,1,4,1,3,3,3,12,11,0,5,15,13,NULL,NULL,NULL,NULL,NULL,NULL
2023-07-27-14:00:50,4105,html-button-response,1,4582,0.0-1.0,1,50,rpru2go7,1,NULL,NULL,0,6,4,3,5,1,1,2,4,2,5,1,1,3,4,3,4,1,1,2,4,2,1,2,2,1,1,3,3,1,2,2,2,3,1,2,3,4,11,6,0,5,15,13,NULL,NULL,NULL,NULL,NULL,NULL
2023-07-27-14:01:31,8287,html-button-response,1,8583,0.0-1.0,1,52,g5mylv8d,1,NULL,NULL,0,9,4,3,5,2,1,2,2,3,5,1,1,3,2,2,4,1,1,1,3,2,1,2,2,4,1,3,3,1,2,1,1,4,2,3,7,3,9,9,0,15,13,5,NULL,NULL,NULL,NULL,NULL,NULL
2023-07-27-14:03:29,29250,html-button-response,1,29967,0.0-1.0,1,52,hspmwt7u,1,NULL,NULL,0,9,4,3,5,3,1,2,1,1,5,1,1,3,5,2,4,1,1,2,1,2,2,1,2,1,1,2,1,3,4,2,2,2,2,3,3,3,8,9,0,13,5,15,NULL,NULL,NULL,NULL,NULL,NULL
2023-07-27-14:14:26,1341,html-button-response,1,1361,0.0-1.0,1,60,xvgmrawy,1,NULL,NULL,0,5,4,3,5,1,1,1,3,3,3,3,3,3,2,2,3,3,1,2,3,1,1,1,1,2,1,2,2,2,3,3,2,3,3,3,8,1,5,12,-7,13,5,15,NULL,NULL,NULL,NULL,NULL,NULL
2023-07-27-14:02:53,42179,html-button-response,1,42771,0.0-1.0,1,38,vmqxydc2,1,NULL,NULL,0,8,4,3,5,1,1,2,2,2,5,1,1,4,4,3,2,1,1,1,4,2,1,2,2,1,1,2,1,3,5,4,1,2,4,4,2,3,20,8,0,5,13,15,NULL,NULL,NULL,NULL,NULL,NULL
2023-07-27-14:03:21,76233,html-button-response,1,77109,0.0-1.0,1,57,8u2j9fxs,1,NULL,NULL,0,11,4,3,5,1,1,2,3,4,5,1,1,5,5,2,4,1,1,2,4,1,1,1,2,1,1,3,3,1,1,2,1,4,2,1,3,4,15,11,0,5,13,15,NULL,NULL,NULL,NULL,NULL,NULL
2023-07-27-14:01:59,10598,html-button-response,1,10872,0.0-1.0,1,34,0vgjmkk0,1,NULL,NULL,0,11,4,3,5,1,1,2,2,2,5,1,1,4,4,3,4,1,1,2,4,2,1,2,2,1,1,2,2,2,4,3,1,2,2,2,3,4,11,11,0,5,15,13,NULL,NULL,NULL,NULL,NULL,NULL
2023-07-27-14:02:54,23289,html-button-response,1,24140,0.0-1.0,1,43,2e3pzyqt,1,NULL,NULL,0,8,4,3,5,1,1,2,2,3,5,1,1,4,4,3,3,1,2,4,4,2,1,2,2,2,1,2,2,2,2,2,1,4,2,2,4,3,7,8,0,5,13,15,NULL,NULL,NULL,NULL,NULL,NULL
2023-07-27-14:13:24,2427,html-button-response,1,2449,0.0-1.0,1,56,c6o30y89,1,NULL,NULL,0,9,4,3,5,1,1,2,2,1,5,1,1,3,3,2,4,1,1,2,1,2,2,1,2,1,1,3,3,1,5,1,1,2,3,3,2,4,6,9,0,15,13,5,NULL,NULL,NULL,NULL,NULL,NULL
2023-07-27-14:13:49,6868,html-button-response,1,6872,0.0-1.0,1,47,1wsvbbfp,1,NULL,NULL,0,8,4,3,5,2,1,2,4,4,5,4,3,2,5,1,4,1,1,2,3,2,3,2,2,1,1,2,3,1,3,4,1,4,2,4,4,5,12,12,-4,15,5,13,NULL,NULL,NULL,NULL,NULL,NULL
2023-07-27-14:12:25,18733,html-button-response,1,18986,0.0-1.0,1,46,b0p9jtg8,1,NULL,NULL,0,8,4,3,5,1,1,2,2,1,5,1,1,4,4,2,4,1,1,4,4,2,1,2,2,1,1,2,2,1,1,4,1,5,1,4,2,5,20,8,0,5,15,13,NULL,NULL,NULL,NULL,NULL,NULL
2023-07-27-14:08:34,396975,html-button-response,1,398110,0.0-1.0,2,73,aleb9to3,1,NULL,NULL,0,11,4,3,5,1,1,2,3,3,5,1,1,4,2,3,3,1,2,3,3,2,2,1,2,1,1,3,3,5,3,3,1,3,3,2,5,3,20,11,0,15,5,13,NULL,NULL,NULL,NULL,NULL,NULL
2023-07-27-16:21:50,34157,html-button-response,1,34990,0.0-1.0,1,56,muho9u5r,1,NULL,NULL,0,11,4,3,6,1,1,2,3,4,5,1,1,3,3,3,4,1,2,2,2,2,1,2,2,2,1,2,2,2,5,3,1,3,2,3,5,4,11,11,0,15,13,5,NULL,NULL,NULL,NULL,NULL,NULL
2023-07-28-17:00:35,2820,html-button-response,1,3471,0.0-1.0,1,60,dnaun9su,1,NULL,NULL,0,20,5,3,6,1,1,2,3,2,3,1,1,3,3,2,3,1,1,1,4,2,1,2,2,1,1,3,3,3,3,3,1,3,3,3,5,3,20,7,13,13,5,15,NULL,NULL,NULL,NULL,NULL,NULL
2023-07-28-17:00:28,1076,html-button-response,1,1701,0.0-1.0,1,28,51w34jha,1,NULL,NULL,0,9,5,3,6,1,1,2,2,2,2,2,2,2,2,2,2,1,1,1,2,2,1,2,2,2,3,3,3,3,2,2,2,3,3,2,6,2,10,10,-1,13,15,5,NULL,NULL,NULL,NULL,NULL,NULL
2023-07-28-17:00:54,10568,html-button-response,1,11217,0.0-1.0,2,77,wpuxb8w3,1,NULL,NULL,0,12,5,3,6,1,1,2,4,3,5,2,2,3,4,2,5,1,2,3,3,2,1,1,1,2,2,3,3,3,4,2,1,2,1,2,7,3,15,8,4,13,15,5,NULL,NULL,NULL,NULL,NULL,NULL
2023-07-28-17:00:54,2767,html-button-response,1,3003,0.0-1.0,2,52,ydbnrms7,1,NULL,NULL,0,11,5,3,6,1,1,2,2,2,5,1,1,3,4,2,4,1,2,2,2,1,1,2,2,1,1,2,2,2,4,2,1,2,3,2,5,3,9,11,0,15,13,5,NULL,NULL,NULL,NULL,NULL,NULL
2023-07-28-17:00:36,2593,html-button-response,1,3892,0.0-1.0,1,41,2fnorc8t,1,NULL,NULL,0,12,5,3,6,4,2,2,2,4,4,1,1,4,5,3,2,1,1,2,2,2,1,2,2,1,1,2,2,4,4,4,2,2,4,4,1,3,7,8,4,5,15,13,NULL,NULL,NULL,NULL,NULL,NULL
2023-07-28-17:01:39,5079,html-button-response,1,6230,0.0-1.0,1,30,vdq1wly8,1,NULL,NULL,0,9,5,3,6,2,1,2,5,2,5,3,1,3,5,2,5,1,2,4,2,2,1,2,1,3,1,3,3,1,5,3,1,3,1,1,9,2,18,9,0,15,5,13,NULL,NULL,NULL,NULL,NULL,NULL
2023-07-28-17:00:37,2838,html-button-response,1,4044,0.0-1.0,2,36,rrq2m1dt,1,NULL,NULL,0,11,5,3,6,1,1,2,3,3,5,2,1,3,3,2,4,1,1,3,5,2,1,2,2,1,1,2,2,1,5,2,1,3,2,3,8,2,11,11,0,15,13,5,NULL,NULL,NULL,NULL,NULL,NULL
2023-07-28-17:00:35,1355,html-button-response,1,4052,0.0-1.0,1,47,oxdpdwol,1,NULL,NULL,0,10,5,3,6,2,1,2,2,1,5,1,1,5,5,2,2,1,2,4,1,2,1,2,2,4,1,2,2,1,4,4,1,2,3,3,3,4,10,10,0,5,15,13,NULL,NULL,NULL,NULL,NULL,NULL
2023-07-28-15:00:43,5035,html-button-response,1,5794,0.0-1.0,1,57,0t596n3u,1,NULL,NULL,0,9,5,3,6,2,1,2,5,3,5,4,1,3,5,1,5,1,1,2,2,2,1,2,1,1,1,2,2,2,5,4,1,2,2,2,6,5,9,9,0,13,5,15,NULL,NULL,NULL,NULL,NULL,NULL
2023-07-28-17:01:06,4073,html-button-response,1,5172,0.0-1.0,1,47,w88jrsky,1,NULL,NULL,0,20,5,3,6,3,1,2,2,3,4,1,1,4,4,2,4,1,1,2,2,2,1,2,1,2,1,2,2,2,5,3,2,3,4,4,2,3,14,11,9,15,13,5,NULL,NULL,NULL,NULL,NULL,NULL
2023-07-28-17:00:54,4277,html-button-response,1,4626,0.0-1.0,2,46,4tqrbtk1,1,NULL,NULL,0,9,5,3,6,1,1,2,3,2,2,1,1,4,5,2,4,1,2,3,3,2,1,1,2,1,1,3,3,1,4,4,1,3,4,4,7,3,8,11,-2,15,5,13,NULL,NULL,NULL,NULL,NULL,NULL
2023-07-28-17:00:46,10320,html-button-response,1,11594,0.0-1.0,1,57,z8ac8lbf,1,NULL,NULL,0,8,5,3,6,1,1,2,2,1,5,1,1,5,2,2,2,1,1,2,4,2,1,2,2,4,4,3,3,1,5,5,1,1,4,4,1,2,10,8,0,13,5,15,NULL,NULL,NULL,NULL,NULL,NULL
2023-07-28-17:01:42,37097,html-button-response,1,38036,0.0-1.0,1,47,2j7dy80o,1,NULL,NULL,0,14,5,3,6,2,1,2,2,3,5,1,1,5,5,3,3,1,2,4,4,2,2,1,2,1,1,3,3,3,5,4,1,3,3,3,5,3,11,14,0,15,5,13,NULL,NULL,NULL,NULL,NULL,NULL
2023-07-28-17:00:51,3413,html-button-response,1,5165,0.0-1.0,1,51,lm3gg5t7,1,NULL,NULL,0,13,5,3,6,2,1,2,3,1,4,4,4,2,4,2,2,1,2,2,2,2,1,2,2,1,1,1,1,4,5,2,1,1,4,3,3,3,13,13,0,5,15,13,NULL,NULL,NULL,NULL,NULL,NULL
2023-07-28-17:00:57,8296,html-button-response,1,9852,0.0-1.0,1,52,9q4stzza,1,NULL,NULL,0,14,5,3,6,1,1,2,3,2,5,2,1,3,4,2,5,1,2,4,5,2,1,1,2,4,1,2,2,1,4,3,1,2,1,3,3,4,10,14,0,15,5,13,NULL,NULL,NULL,NULL,NULL,NULL
2023-07-28-17:01:02,7421,html-button-response,1,8030,0.0-1.0,1,55,z6e11pdg,1,NULL,NULL,0,10,5,3,6,1,1,2,3,2,4,1,1,3,3,2,3,1,2,2,3,2,1,2,2,4,1,2,2,3,4,3,2,2,3,3,5,3,10,10,0,5,13,15,NULL,NULL,NULL,NULL,NULL,NULL
2023-07-28-17:01:42,27504,html-button-response,1,28567,0.0-1.0,1,41,jdhe88ac,1,NULL,NULL,0,13,5,3,6,1,1,2,2,2,5,1,1,5,5,3,1,1,2,4,4,2,1,2,2,2,1,3,3,1,5,1,3,2,2,3,3,4,12,13,0,5,13,15,NULL,NULL,NULL,NULL,NULL,NULL
2023-07-28-17:01:30,10035,html-button-response,1,10037,0.0-1.0,1,49,nubcv3yf,1,NULL,NULL,0,11,5,3,6,1,1,2,1,2,5,1,1,5,5,3,2,1,2,2,4,2,1,2,1,2,1,3,3,4,1,4,1,4,4,2,5,4,11,8,3,15,5,13,NULL,NULL,NULL,NULL,NULL,NULL
2023-07-28-17:00:51,17562,html-button-response,1,18342,0.0-1.0,1,38,9782pd3e,1,NULL,NULL,0,11,5,3,6,1,1,2,2,2,5,1,1,4,5,2,3,1,2,2,4,2,1,2,2,1,1,2,1,4,5,1,1,3,1,2,3,4,13,9,2,15,13,5,NULL,NULL,NULL,NULL,NULL,NULL
2023-07-28-17:06:04,1208,html-button-response,1,1843,0.0-1.0,1,34,wnajwyef,1,NULL,NULL,0,5,5,3,6,1,1,2,4,3,5,1,1,2,4,1,5,1,1,2,4,2,1,1,1,2,3,3,3,2,4,2,1,2,2,1,6,4,16,5,0,5,15,13,NULL,NULL,NULL,NULL,NULL,NULL
2023-07-28-17:02:21,62251,html-button-response,1,62977,0.0-1.0,1,43,0keegrqo,1,NULL,NULL,0,8,5,3,6,1,1,2,2,2,5,1,1,3,4,3,4,1,2,1,4,2,1,2,2,1,1,3,3,3,5,4,1,2,2,2,5,2,12,8,0,5,13,15,NULL,NULL,NULL,NULL,NULL,NULL
2023-07-28-17:02:34,34771,html-button-response,1,35663,0.0-1.0,1,39,o35j55q0,1,NULL,NULL,0,6,5,3,6,1,1,2,3,2,5,1,1,4,4,2,3,1,1,1,4,2,1,2,2,2,1,3,3,3,4,3,1,3,2,2,4,1,14,6,0,13,5,15,NULL,NULL,NULL,NULL,NULL,NULL
2023-07-28-17:01:14,7945,html-button-response,1,8296,0.0-1.0,1,55,ja2zydyc,1,NULL,NULL,0,7,5,3,6,1,1,2,4,3,5,1,1,4,4,2,4,1,2,4,2,2,1,2,2,1,1,2,2,2,4,4,1,2,1,1,8,4,12,7,0,15,5,13,NULL,NULL,NULL,NULL,NULL,NULL
2023-07-28-17:01:10,14202,html-button-response,1,14754,0.0-1.0,1,50,mckxdu95,1,NULL,NULL,0,12,5,3,6,1,1,2,2,4,5,1,1,3,5,1,5,1,1,4,4,2,1,2,1,2,1,3,3,1,5,1,1,2,2,2,7,3,9,12,0,13,15,5,NULL,NULL,NULL,NULL,NULL,NULL
2023-07-28-17:01:04,8364,html-button-response,1,8580,0.0-1.0,2,55,x2jrwl2k,1,NULL,NULL,0,13,5,3,6,1,1,2,2,2,5,1,1,5,4,3,2,1,1,2,3,2,1,2,1,2,1,4,4,1,4,2,1,2,2,4,6,4,20,13,0,13,15,5,NULL,NULL,NULL,NULL,NULL,NULL
2023-07-28-17:00:48,4888,html-button-response,1,5688,0.0-1.0,1,46,a4s6uckt,1,NULL,NULL,0,11,5,2,6,1,1,2,3,2,5,1,1,4,4,2,3,1,2,4,4,2,1,2,2,2,1,1,1,2,5,3,1,2,3,2,6,4,11,9,2,15,5,13,NULL,NULL,NULL,NULL,NULL,NULL
2023-07-28-17:02:10,4345,html-button-response,1,5780,0.0-1.0,1,54,r1r2nzft,1,NULL,NULL,0,8,5,3,6,2,1,2,3,3,5,3,1,3,4,2,4,1,2,3,3,2,1,2,2,1,1,2,2,3,5,2,1,2,3,2,4,3,13,8,0,13,5,15,NULL,NULL,NULL,NULL,NULL,NULL
2023-07-28-17:02:04,9124,html-button-response,1,9340,0.0-1.0,1,51,g7llsya3,1,NULL,NULL,0,10,5,3,6,1,1,2,4,3,5,1,1,3,4,1,4,1,1,1,4,2,1,2,2,1,1,3,3,1,5,3,1,3,2,3,4,3,9,10,0,15,13,5,NULL,NULL,NULL,NULL,NULL,NULL
2023-07-28-17:01:21,8192,html-button-response,1,9106,0.0-1.0,1,65,cljauwkk,1,NULL,NULL,0,11,5,3,6,1,1,2,3,2,5,1,1,4,3,2,4,1,1,1,4,2,2,1,2,4,1,3,3,1,5,2,1,2,1,1,4,3,11,11,0,13,15,5,NULL,NULL,NULL,NULL,NULL,NULL
2023-07-28-17:00:46,5907,html-button-response,1,8038,0.0-1.0,1,52,f0qkumyh,1,NULL,NULL,0,10,5,3,6,2,1,2,4,1,4,1,1,4,4,2,4,1,1,1,3,2,1,2,2,3,1,2,2,1,5,3,1,3,3,3,6,3,17,10,0,13,5,15,NULL,NULL,NULL,NULL,NULL,NULL
2023-07-28-17:01:34,35595,html-button-response,1,36542,0.0-1.0,1,63,5y5hdelp,1,NULL,NULL,0,9,5,3,6,1,1,2,3,4,5,1,1,3,3,3,3,1,2,3,5,2,1,1,2,2,1,3,3,1,5,3,1,3,1,1,7,4,14,11,-2,15,5,13,NULL,NULL,NULL,NULL,NULL,NULL
2023-07-28-17:01:06,9162,html-button-response,1,10120,0.0-1.0,1,57,gaurbfmt,1,NULL,NULL,0,5,5,3,6,2,1,2,2,3,5,1,1,4,5,1,2,1,1,1,2,2,1,2,2,2,1,2,2,2,5,4,2,2,2,4,6,2,7,5,0,13,5,15,NULL,NULL,NULL,NULL,NULL,NULL
2023-07-28-17:00:58,7689,html-button-response,1,8435,0.0-1.0,1,53,eeevfy0e,1,NULL,NULL,0,6,5,3,6,1,1,2,2,3,5,1,1,4,5,2,3,1,1,3,3,2,1,2,2,3,1,2,2,2,3,4,2,2,2,3,7,3,9,6,0,15,5,13,NULL,NULL,NULL,NULL,NULL,NULL
2023-07-28-17:01:03,11149,html-button-response,1,11783,0.0-1.0,1,49,2mw0s99a,1,NULL,NULL,0,8,5,3,6,1,1,2,2,3,4,2,1,3,4,1,4,1,2,4,4,2,1,2,2,2,1,2,2,4,4,3,1,3,3,4,3,3,10,8,0,13,5,15,NULL,NULL,NULL,NULL,NULL,NULL
2023-07-28-17:01:49,23473,html-button-response,1,25199,0.0-1.0,1,43,hh1vm9ag,1,NULL,NULL,0,10,5,3,6,1,1,2,3,4,5,1,1,3,4,3,4,1,2,4,3,2,1,2,2,1,1,3,2,2,4,1,2,3,1,2,3,3,14,10,0,13,15,5,NULL,NULL,NULL,NULL,NULL,NULL
2023-07-28-17:04:18,21518,html-button-response,1,22195,0.0-1.0,1,47,3ppcyjv6,1,NULL,NULL,0,11,5,3,6,1,1,2,3,2,5,1,1,5,3,2,2,1,1,4,3,2,1,2,2,2,1,3,3,2,5,4,2,3,3,3,6,2,20,11,0,15,5,13,NULL,NULL,NULL,NULL,NULL,NULL
2023-07-28-17:01:11,20361,html-button-response,1,21242,0.0-1.0,2,38,fks40mam,1,NULL,NULL,0,9,5,3,6,1,1,2,2,3,5,1,1,3,2,3,3,1,1,2,4,2,2,2,2,1,1,3,5,3,2,4,1,4,4,5,3,3,8,9,0,15,13,5,NULL,NULL,NULL,NULL,NULL,NULL
2023-07-28-17:08:03,4107,html-button-response,1,4110,0.0-1.0,1,54,c7taqqxa,1,NULL,NULL,0,11,5,3,6,1,1,2,3,1,5,1,1,3,3,1,3,1,2,2,4,2,2,1,2,1,1,2,2,3,1,3,1,4,4,4,3,3,11,11,0,5,13,15,NULL,NULL,NULL,NULL,NULL,NULL
2023-07-28-17:02:11,7888,html-button-response,1,9622,0.0-1.0,1,22,murhsval,1,NULL,NULL,0,8,5,3,6,1,1,2,3,2,4,1,1,4,4,3,4,1,1,2,4,2,1,2,2,1,1,3,3,1,5,2,2,3,1,2,5,4,20,8,0,15,13,5,NULL,NULL,NULL,NULL,NULL,NULL
2023-07-28-17:02:35,113720,html-button-response,1,114002,0.0-1.0,1,31,bpt6vl96,1,NULL,NULL,0,12,5,3,6,1,1,2,1,2,5,2,2,4,5,2,5,1,2,4,3,2,1,2,2,2,1,3,3,2,5,3,1,2,4,4,3,3,17,11,1,15,5,13,NULL,NULL,NULL,NULL,NULL,NULL
2023-07-28-17:03:18,71809,html-button-response,1,72174,0.0-1.0,1,58,k4a40rbe,1,NULL,NULL,0,11,5,3,6,1,1,2,2,3,5,1,1,4,5,3,3,1,2,4,4,2,1,2,1,2,1,2,2,1,4,2,1,3,1,2,4,4,16,11,0,5,13,15,NULL,NULL,NULL,NULL,NULL,NULL
2023-07-28-17:02:37,51432,html-button-response,1,57263,0.0-1.0,2,40,q55zgcc0,1,NULL,NULL,0,7,5,3,6,1,1,2,2,3,5,1,1,3,4,2,4,1,1,2,4,2,1,2,2,1,1,2,2,2,5,2,1,4,2,2,4,2,12,7,0,15,5,13,NULL,NULL,NULL,NULL,NULL,NULL
2023-07-28-17:01:28,27402,html-button-response,1,28905,0.0-1.0,1,44,a22tkrun,1,NULL,NULL,0,8,5,3,6,1,1,2,3,3,5,1,1,5,3,3,2,1,2,4,2,2,2,1,2,1,1,3,3,1,4,2,1,4,1,2,4,4,10,8,0,13,15,5,NULL,NULL,NULL,NULL,NULL,NULL
2023-07-28-17:10:08,3763,html-button-response,1,6428,0.0-1.0,1,33,xg9k591y,1,NULL,NULL,0,10,5,3,6,1,1,2,3,4,5,1,1,4,4,3,4,1,1,4,4,2,1,2,2,1,1,3,2,2,3,2,1,4,1,2,7,4,13,10,0,15,5,13,NULL,NULL,NULL,NULL,NULL,NULL
2023-07-28-17:06:10,11982,html-button-response,1,12459,0.0-1.0,1,37,9ahxrvcf,1,NULL,NULL,0,13,5,3,6,1,1,2,3,2,5,1,1,4,4,2,3,1,2,4,4,2,1,2,2,2,1,2,2,2,3,2,1,4,2,3,4,4,13,13,0,13,15,5,NULL,NULL,NULL,NULL,NULL,NULL
2023-07-28-17:02:27,18563,html-button-response,1,19425,0.0-1.0,1,56,u4qp9p4v,1,NULL,NULL,0,12,5,3,6,1,1,2,3,4,5,1,1,3,3,3,4,1,2,1,4,2,1,2,2,2,1,2,2,1,4,1,1,3,2,2,5,4,13,12,0,5,15,13,NULL,NULL,NULL,NULL,NULL,NULL
2023-07-28-17:16:50,788,html-button-response,1,792,0.0-1.0,1,39,usxbob9d,1,NULL,NULL,0,15,5,3,6,1,1,2,3,1,5,1,1,3,3,2,3,1,1,1,3,2,1,2,2,1,1,2,2,3,4,3,1,3,3,3,1,3,0,16,-1,15,5,13,NULL,NULL,NULL,NULL,NULL,NULL
2023-07-28-17:16:10,16357,html-button-response,1,17849,0.0-1.0,1,48,zu8x0h0p,1,NULL,NULL,0,9,5,3,6,1,1,2,2,4,5,1,1,4,5,1,2,1,2,4,4,2,1,1,1,1,1,3,3,2,3,2,1,4,1,1,3,5,10,9,0,13,15,5,NULL,NULL,NULL,NULL,NULL,NULL
2023-07-28-17:10:34,25555,html-button-response,1,26390,0.0-1.0,1,59,do1e0uqw,1,NULL,NULL,0,11,5,3,6,1,1,2,4,4,5,1,1,3,4,2,4,1,1,1,4,2,1,2,2,2,1,2,2,2,5,2,1,2,2,4,3,3,12,11,0,15,13,5,NULL,NULL,NULL,NULL,NULL,NULL
2023-07-28-17:09:00,25851,html-button-response,1,26519,0.0-1.0,1,66,7c7yoj0r,1,NULL,NULL,0,8,5,3,6,1,1,2,2,2,5,1,1,3,4,1,5,1,1,2,4,2,2,1,2,2,1,1,1,1,5,2,1,3,2,1,2,3,14,8,0,13,5,15,NULL,NULL,NULL,NULL,NULL,NULL
2023-07-28-17:37:02,4411,html-button-response,1,5387,0.0-1.0,1,32,pl5yoxfg,1,NULL,NULL,0,10,5,3,6,1,1,2,3,1,4,1,1,5,4,3,2,1,1,1,5,1,1,2,2,2,2,3,2,4,4,4,1,2,4,3,7,4,13,10,0,15,5,13,NULL,NULL,NULL,NULL,NULL,NULL
2023-07-28-19:06:51,8513,html-button-response,1,8692,0.0-1.0,2,40,stn65wq5,1,NULL,NULL,0,11,5,3,7,1,1,2,1,3,5,1,1,2,5,1,4,1,2,3,2,1,2,2,2,1,1,3,3,1,4,2,1,1,1,4,1,4,15,11,0,15,13,5,NULL,NULL,NULL,NULL,NULL,NULL
2023-07-29-20:00:38,2192,html-button-response,1,2816,0.0-1.0,1,50,6ttte6ab,1,NULL,NULL,0,11,6,3,7,1,1,2,4,4,5,1,1,3,5,1,5,1,1,2,4,2,1,1,1,3,1,3,3,2,2,1,1,3,1,2,6,3,18,11,0,13,5,15,NULL,NULL,NULL,NULL,NULL,NULL
2023-07-29-20:00:27,3711,html-button-response,1,4372,0.0-1.0,1,42,z3osn0k8,1,NULL,NULL,0,11,6,3,7,1,1,2,3,4,5,1,1,4,4,3,4,1,1,2,4,2,1,2,2,1,1,2,3,4,5,4,1,5,1,2,1,3,7,11,0,15,13,5,NULL,NULL,NULL,NULL,NULL,NULL
2023-07-29-20:00:36,5633,html-button-response,1,6820,0.0-1.0,1,32,w7g9ons5,1,NULL,NULL,0,13,6,3,7,1,1,2,2,1,4,1,1,3,5,2,4,1,1,1,4,1,1,2,2,2,1,2,2,3,2,2,1,4,3,4,7,4,12,13,0,5,15,13,NULL,NULL,NULL,NULL,NULL,NULL
2023-07-29-20:00:26,2276,html-button-response,1,3272,0.0-1.0,1,43,9n81odgv,1,NULL,NULL,0,11,6,3,7,1,1,2,2,2,5,1,1,4,4,3,2,1,1,1,4,2,1,2,2,1,1,3,3,4,2,2,1,4,1,2,5,5,8,9,2,5,15,13,NULL,NULL,NULL,NULL,NULL,NULL
2023-07-29-20:01:10,33457,html-button-response,1,34042,0.0-1.0,1,50,8wngn9u5,1,NULL,NULL,0,9,7,3,7,1,1,2,3,3,5,1,1,4,5,1,4,1,1,2,3,2,2,1,1,2,1,2,2,4,2,2,1,4,2,4,6,2,12,9,0,5,15,13,NULL,NULL,NULL,NULL,NULL,NULL
2023-07-29-20:00:35,5874,html-button-response,1,6887,0.0-1.0,1,46,qfankje5,1,NULL,NULL,0,7,6,2,7,1,1,2,3,2,5,1,1,4,3,2,3,1,1,2,4,2,1,2,2,2,1,1,1,3,2,1,1,4,3,3,6,3,9,13,-6,13,15,5,NULL,NULL,NULL,NULL,NULL,NULL
2023-07-29-20:01:27,2052,html-button-response,1,2310,0.0-1.0,1,44,b8yp18f1,1,NULL,NULL,0,12,6,3,7,1,1,2,2,3,5,1,1,4,5,1,4,1,1,3,5,2,1,2,2,1,1,3,3,1,4,3,1,3,3,2,4,3,6,12,0,5,13,15,NULL,NULL,NULL,NULL,NULL,NULL
2023-07-29-20:00:40,4430,html-button-response,1,6303,0.0-1.0,1,52,9w70btlt,1,NULL,NULL,0,6,6,3,7,1,1,2,2,4,5,1,1,5,5,3,2,1,2,4,1,2,1,2,1,1,1,2,2,2,3,4,1,4,1,2,5,2,10,6,0,13,5,15,NULL,NULL,NULL,NULL,NULL,NULL
2023-07-29-20:01:06,8221,html-button-response,1,8636,0.0-1.0,1,47,0gb3dzn1,1,NULL,NULL,0,9,6,3,7,1,1,2,3,2,5,1,1,3,4,1,4,1,1,4,5,2,2,1,2,1,1,3,3,2,1,1,1,4,3,4,5,3,11,9,0,5,15,13,NULL,NULL,NULL,NULL,NULL,NULL
2023-07-29-20:00:26,2261,html-button-response,1,3126,0.0-1.0,1,47,14o17ty1,1,NULL,NULL,0,10,6,3,7,1,1,2,1,4,5,1,1,5,5,1,1,1,1,1,5,2,2,2,2,4,5,1,1,4,5,5,1,3,5,5,1,3,4,10,0,13,15,5,NULL,NULL,NULL,NULL,NULL,NULL
2023-07-29-20:00:34,5998,html-button-response,1,6216,0.0-1.0,2,55,ayvddmww,1,NULL,NULL,0,10,6,3,7,1,1,2,2,2,5,2,1,2,4,2,4,1,1,1,3,2,1,2,1,2,1,4,4,2,1,4,1,4,3,3,6,4,20,10,0,13,15,5,NULL,NULL,NULL,NULL,NULL,NULL
2023-07-29-20:00:35,2920,html-button-response,1,3791,0.0-1.0,1,53,53uud8go,1,NULL,NULL,0,9,6,3,7,1,1,2,3,4,5,3,1,3,4,2,4,1,2,1,3,2,1,2,2,1,1,2,2,3,1,3,1,4,1,3,7,3,13,9,0,15,5,13,NULL,NULL,NULL,NULL,NULL,NULL
2023-07-29-20:00:41,12116,html-button-response,1,12791,0.0-1.0,1,53,ke77c2o2,1,NULL,NULL,0,10,6,3,7,1,1,2,3,2,5,1,1,3,4,3,4,1,1,3,3,2,1,2,2,2,1,2,2,1,2,2,1,4,2,2,5,3,8,10,0,5,13,15,NULL,NULL,NULL,NULL,NULL,NULL
2023-07-29-20:01:26,18730,html-button-response,1,19170,0.0-1.0,1,36,v8volvdf,1,NULL,NULL,0,15,6,3,7,1,1,2,2,3,5,1,1,3,4,1,4,1,2,3,3,2,1,1,1,2,1,2,2,3,2,3,1,4,2,3,4,3,12,5,10,13,5,15,NULL,NULL,NULL,NULL,NULL,NULL
2023-07-29-20:00:36,7901,html-button-response,1,8631,0.0-1.0,1,30,21tf4yrl,1,NULL,NULL,0,12,6,3,7,1,1,2,1,2,2,1,1,5,4,2,2,3,2,3,3,1,2,2,1,2,3,4,4,3,4,4,2,3,2,5,1,1,8,8,4,15,13,5,NULL,NULL,NULL,NULL,NULL,NULL
2023-07-29-20:00:57,36119,html-button-response,1,37352,0.0-1.0,2,65,cywrj4ga,1,NULL,NULL,0,8,6,3,7,1,1,2,2,4,5,2,2,3,4,1,5,1,2,4,3,2,1,2,2,1,1,3,3,1,1,2,1,4,2,2,4,2,7,8,0,15,5,13,NULL,NULL,NULL,NULL,NULL,NULL
2023-07-29-20:00:37,7862,html-button-response,1,8437,0.0-1.0,1,54,bkmm268y,1,NULL,NULL,0,11,6,3,7,1,1,2,3,4,5,1,1,3,3,2,5,1,1,1,3,2,1,2,2,4,1,3,3,1,2,1,1,4,2,4,5,5,12,11,0,5,15,13,NULL,NULL,NULL,NULL,NULL,NULL
2023-07-29-20:00:35,834,html-button-response,1,2167,0.0-1.0,1,30,nqxehuwk,1,NULL,NULL,0,9,6,3,7,1,1,2,2,3,5,1,1,5,4,1,4,1,2,3,4,2,1,2,1,2,2,2,2,3,1,2,3,4,4,4,4,4,8,9,0,13,5,15,NULL,NULL,NULL,NULL,NULL,NULL
2023-07-29-20:00:55,11911,html-button-response,1,12828,0.0-1.0,1,45,65g739l2,1,NULL,NULL,0,12,6,3,7,1,1,2,1,2,5,1,1,5,5,2,1,1,2,4,4,2,1,2,2,1,1,3,3,1,2,3,1,5,3,5,3,3,12,12,0,5,15,13,NULL,NULL,NULL,NULL,NULL,NULL
2023-07-29-20:01:21,37928,html-button-response,1,38923,0.0-1.0,1,41,6zovtxj7,1,NULL,NULL,0,10,6,3,7,1,1,2,3,3,5,1,1,3,3,2,4,1,2,4,2,2,1,2,2,1,1,3,3,1,5,1,1,3,1,1,7,3,11,10,0,5,13,15,NULL,NULL,NULL,NULL,NULL,NULL
2023-07-29-20:00:59,18843,html-button-response,1,19140,0.0-1.0,1,53,2qd6kdas,1,NULL,NULL,0,12,6,3,7,1,1,2,2,1,5,1,1,3,4,2,4,1,2,3,4,2,1,2,2,1,1,2,2,2,1,2,1,5,3,4,3,4,12,12,0,13,5,15,NULL,NULL,NULL,NULL,NULL,NULL
2023-07-29-20:01:41,58630,html-button-response,1,59018,0.0-1.0,1,55,h8n2b0yg,1,NULL,NULL,0,12,6,3,7,1,1,2,3,2,5,1,1,4,3,2,3,1,1,1,3,2,2,1,2,4,1,2,2,3,2,4,1,2,3,3,5,3,12,12,0,5,15,13,NULL,NULL,NULL,NULL,NULL,NULL
2023-07-29-20:02:08,59764,html-button-response,1,60105,0.0-1.0,2,32,on647bk7,1,NULL,NULL,0,9,6,3,7,1,1,2,2,4,5,1,1,5,4,1,1,1,1,4,4,2,1,2,2,1,1,1,1,5,5,4,3,1,5,5,1,1,15,9,0,13,15,5,NULL,NULL,NULL,NULL,NULL,NULL
2023-07-29-20:01:26,19761,html-button-response,1,20971,0.0-1.0,1,64,q5yqllyr,1,NULL,NULL,0,8,6,3,7,1,1,2,3,3,5,1,1,3,4,2,5,1,2,4,2,2,1,2,2,1,1,4,4,2,4,2,1,3,1,1,8,3,12,8,0,13,15,5,NULL,NULL,NULL,NULL,NULL,NULL
2023-07-29-20:01:00,8177,html-button-response,1,9013,0.0-1.0,1,51,8kbfd0wa,1,NULL,NULL,0,12,6,3,7,1,1,2,2,4,5,1,1,4,4,2,4,1,2,4,4,2,1,2,2,1,1,2,2,4,5,3,1,3,3,3,5,3,13,12,0,15,13,5,NULL,NULL,NULL,NULL,NULL,NULL
2023-07-29-20:01:56,81283,html-button-response,1,81774,0.0-1.0,1,48,ra6s4gwe,1,NULL,NULL,0,10,6,3,7,1,1,2,2,3,5,1,1,4,2,3,2,1,2,1,5,2,1,2,2,4,1,3,3,4,1,1,1,5,2,4,4,5,13,10,0,15,5,13,NULL,NULL,NULL,NULL,NULL,NULL
2023-07-29-20:01:05,6606,html-button-response,1,7253,0.0-1.0,1,39,he3loqro,1,NULL,NULL,0,8,6,3,7,1,1,2,3,2,5,1,1,4,3,1,4,1,2,1,3,2,1,1,2,1,1,3,3,2,2,3,1,5,1,2,2,2,9,8,0,5,13,15,NULL,NULL,NULL,NULL,NULL,NULL
2023-07-29-20:00:34,9151,html-button-response,1,9646,0.0-1.0,1,47,8bsa10zo,1,NULL,NULL,0,9,6,3,7,1,1,2,2,4,5,1,1,5,5,1,2,1,2,2,4,2,2,2,2,4,1,2,2,3,1,3,1,4,3,3,5,3,8,9,0,15,13,5,NULL,NULL,NULL,NULL,NULL,NULL
2023-07-29-20:00:49,11433,html-button-response,1,11880,0.0-1.0,2,49,xf4pfulu,1,NULL,NULL,0,11,6,3,7,1,1,2,1,1,5,1,1,3,5,3,4,1,1,1,3,2,1,2,2,1,1,3,3,4,2,3,1,4,1,4,1,3,1,11,0,5,13,15,NULL,NULL,NULL,NULL,NULL,NULL
2023-07-29-20:01:02,11104,html-button-response,1,11415,0.0-1.0,1,52,envyt228,1,NULL,NULL,0,9,6,3,7,1,1,2,2,4,5,1,1,5,4,3,2,1,1,1,4,2,2,1,2,1,1,2,2,2,4,4,1,2,5,5,2,4,10,9,0,5,15,13,NULL,NULL,NULL,NULL,NULL,NULL
2023-07-29-20:00:51,10673,html-button-response,1,11682,0.0-1.0,2,58,j8mp9ujo,1,NULL,NULL,0,10,6,3,7,1,1,2,2,3,5,2,1,3,2,1,4,1,2,3,4,2,1,2,2,2,1,3,3,3,2,3,1,5,2,4,6,4,10,10,0,15,13,5,NULL,NULL,NULL,NULL,NULL,NULL
2023-07-29-20:01:04,20467,html-button-response,1,20857,0.0-1.0,2,45,9hurcc2x,1,NULL,NULL,0,11,6,3,7,1,1,2,3,3,5,1,1,2,4,3,5,1,2,1,4,2,3,1,2,1,1,2,3,1,5,3,1,2,1,4,4,4,14,11,0,5,13,15,NULL,NULL,NULL,NULL,NULL,NULL
2023-07-29-20:01:48,34604,html-button-response,1,34906,0.0-1.0,1,48,vhwdxjg6,1,NULL,NULL,0,12,6,3,7,1,1,2,2,2,5,1,1,3,5,3,5,1,2,4,2,2,2,1,1,1,1,3,3,1,1,1,1,5,5,5,3,4,12,12,0,13,5,15,NULL,NULL,NULL,NULL,NULL,NULL
2023-07-29-20:00:34,4749,html-button-response,1,6188,0.0-1.0,1,61,5mfljatl,1,NULL,NULL,0,9,6,3,7,1,1,2,4,4,5,1,1,5,5,3,2,3,1,3,4,2,1,2,2,4,3,4,4,1,1,3,1,4,1,1,2,3,9,9,0,15,5,13,NULL,NULL,NULL,NULL,NULL,NULL
2023-07-29-20:00:53,14272,html-button-response,1,15076,0.0-1.0,1,42,gomluepc,1,NULL,NULL,0,10,6,3,7,1,1,2,3,3,5,1,1,4,5,3,3,1,1,2,1,2,1,2,2,1,1,2,2,4,2,2,1,4,3,2,4,3,14,10,0,15,5,13,NULL,NULL,NULL,NULL,NULL,NULL
2023-07-29-20:03:03,20588,html-button-response,1,22354,0.0-1.0,1,66,3fpcuroz,1,NULL,NULL,0,9,6,3,7,1,1,2,4,3,5,1,1,3,4,2,4,1,1,1,3,2,1,2,2,4,1,3,3,2,2,2,1,4,1,1,8,3,12,9,0,5,13,15,NULL,NULL,NULL,NULL,NULL,NULL
2023-07-29-20:01:14,17321,html-button-response,1,18023,0.0-1.0,1,41,jecan5hs,1,NULL,NULL,0,7,6,3,7,1,1,2,2,3,5,1,1,4,4,3,4,1,1,4,5,2,1,2,2,1,1,4,3,2,5,1,3,2,1,2,3,4,6,7,0,13,15,5,NULL,NULL,NULL,NULL,NULL,NULL
2023-07-29-20:02:09,30507,html-button-response,1,31453,0.0-1.0,1,52,hblrmuvt,1,NULL,NULL,0,13,6,3,7,1,1,2,3,4,5,1,1,3,5,3,5,1,1,4,4,2,1,1,1,2,1,3,3,1,3,1,1,2,1,1,6,4,13,13,0,15,5,13,NULL,NULL,NULL,NULL,NULL,NULL
2023-07-29-20:01:17,50198,html-button-response,1,51065,0.0-1.0,1,41,yd50e0ck,1,NULL,NULL,0,9,6,3,7,1,1,2,4,2,5,2,2,4,5,1,5,1,2,4,4,2,1,2,2,4,1,4,4,1,2,1,1,3,1,1,3,5,6,9,0,5,13,15,NULL,NULL,NULL,NULL,NULL,NULL
2023-07-29-20:02:23,39063,html-button-response,1,41667,0.0-1.0,1,65,ff7wk4k7,1,NULL,NULL,0,13,6,3,7,1,1,2,4,3,5,1,1,4,2,1,2,1,1,4,4,2,1,2,1,1,1,3,3,2,1,2,1,5,2,1,7,4,14,13,0,5,13,15,NULL,NULL,NULL,NULL,NULL,NULL
2023-07-29-20:01:23,3759,html-button-response,1,3792,0.0-1.0,1,56,ha5bq83y,1,NULL,NULL,0,9,6,3,7,1,1,2,3,4,5,1,1,3,3,3,4,1,2,4,4,2,1,2,2,2,1,2,2,1,4,1,1,3,2,2,5,4,13,9,0,15,5,13,NULL,NULL,NULL,NULL,NULL,NULL
2023-07-29-20:06:54,163820,html-button-response,1,385330,0.0-1.0,2,54,495y224u,1,NULL,NULL,0,10,6,3,7,1,1,2,3,3,5,1,1,3,2,2,4,1,2,4,3,2,1,2,1,2,1,3,3,3,1,1,1,4,1,3,6,3,8,10,0,13,5,15,NULL,NULL,NULL,NULL,NULL,NULL
2023-07-29-20:01:52,42965,html-button-response,1,43451,0.0-1.0,1,58,ougz0158,1,NULL,NULL,0,10,6,3,7,1,1,2,2,3,5,1,1,3,2,2,5,1,2,2,4,2,1,2,2,1,1,3,2,3,3,3,1,3,4,3,6,3,11,10,0,5,15,13,NULL,NULL,NULL,NULL,NULL,NULL
2023-07-29-20:03:53,81038,html-button-response,1,81842,0.0-1.0,1,34,4hs2zt6b,1,NULL,NULL,0,8,6,3,7,1,1,2,3,2,5,1,1,4,4,1,3,3,2,1,4,2,2,1,1,2,1,3,4,2,1,1,1,5,2,2,2,4,14,8,0,5,15,13,NULL,NULL,NULL,NULL,NULL,NULL
2023-07-29-20:02:49,29913,html-button-response,1,30617,0.0-1.0,2,47,c7hw91u6,1,NULL,NULL,0,10,6,3,7,1,1,2,4,3,5,2,1,3,3,2,4,3,2,3,3,2,1,2,2,2,1,3,3,1,1,3,1,4,2,4,5,3,12,10,0,5,15,13,NULL,NULL,NULL,NULL,NULL,NULL
2023-07-29-20:00:30,1981,html-button-response,1,2762,0.0-1.0,1,48,wwpjwd0h,1,NULL,NULL,0,20,6,3,7,1,1,2,3,2,5,3,1,3,3,1,4,1,1,1,4,2,1,2,2,2,1,3,3,2,2,2,1,4,2,3,5,4,20,9,11,15,5,13,NULL,NULL,NULL,NULL,NULL,NULL
2023-07-29-20:02:08,14703,html-button-response,1,15564,0.0-1.0,2,53,vujpcsqg,1,NULL,NULL,0,12,6,3,7,1,1,2,2,3,5,1,1,5,4,3,4,1,2,4,4,2,1,2,2,2,1,3,3,4,1,3,1,4,2,4,6,4,11,12,0,15,13,5,NULL,NULL,NULL,NULL,NULL,NULL
2023-07-29-20:22:14,930,html-button-response,1,1900,0.0-1.0,2,72,wruo9mdn,1,NULL,NULL,0,20,6,3,7,1,1,2,1,2,5,3,2,3,4,2,5,1,2,3,1,2,1,2,2,3,1,2,2,3,2,2,2,5,2,2,5,3,20,7,13,15,13,5,NULL,NULL,NULL,NULL,NULL,NULL
2023-07-29-20:29:21,35603,html-button-response,1,35699,0.0-1.0,1,50,59cm9rf7,1,NULL,NULL,0,9,6,3,7,1,1,2,2,3,5,1,1,4,5,3,4,1,2,4,4,2,1,2,2,1,1,2,2,1,2,2,1,4,2,2,4,4,12,9,0,13,5,15,NULL,NULL,NULL,NULL,NULL,NULL
2023-07-29-22:06:07,4320,html-button-response,1,5958,0.0-1.0,2,58,pu13jquw,1,NULL,NULL,0,10,6,3,8,1,1,2,4,4,5,2,2,4,4,3,4,1,1,1,3,2,1,2,2,2,1,2,2,4,4,4,1,4,2,4,5,3,12,10,0,15,13,5,NULL,NULL,NULL,NULL,NULL,NULL
2023-07-29-22:16:15,4756,html-button-response,1,4784,0.0-1.0,2,58,oqy80zam,1,NULL,NULL,0,8,6,3,8,1,1,2,4,4,5,2,1,3,3,2,4,1,1,1,4,2,1,2,2,2,1,2,2,4,4,4,1,4,1,4,6,3,12,8,0,5,13,15,NULL,NULL,NULL,NULL,NULL,NULL
2023-07-30-23:00:29,1389,html-button-response,1,2692,0.0-1.0,1,42,cyjq1vu1,1,NULL,NULL,0,9,7,3,8,1,1,2,3,4,5,1,1,4,2,2,5,1,1,2,4,2,1,2,2,1,1,3,4,2,3,4,1,3,5,5,2,3,9,9,0,15,13,5,NULL,NULL,NULL,NULL,NULL,NULL
2023-07-30-23:00:28,2130,html-button-response,1,3332,0.0-1.0,1,50,svz7p3ea,1,NULL,NULL,0,11,7,3,8,1,1,2,2,3,5,1,1,4,5,1,4,1,1,2,4,2,2,1,1,2,1,2,2,4,3,2,1,3,1,4,6,4,13,11,0,15,5,13,NULL,NULL,NULL,NULL,NULL,NULL
2023-07-30-23:00:24,1699,html-button-response,1,2071,0.0-1.0,1,42,emj3rh5y,1,NULL,NULL,0,14,7,3,8,1,1,2,3,2,5,1,1,3,3,2,4,1,1,4,3,2,1,2,2,1,1,3,3,3,3,3,1,3,1,3,6,3,17,14,0,15,5,13,NULL,NULL,NULL,NULL,NULL,NULL
2023-07-30-23:00:32,3293,html-button-response,1,4211,0.0-1.0,2,26,3e2en76r,1,NULL,NULL,0,20,7,3,8,1,1,2,3,1,5,2,1,3,4,2,4,1,2,2,3,2,1,2,2,1,1,2,2,3,3,3,1,3,3,3,7,3,20,9,11,5,13,15,NULL,NULL,NULL,NULL,NULL,NULL
2023-07-30-23:00:33,2765,html-button-response,1,6880,0.0-1.0,1,37,srwqsg0e,1,NULL,NULL,0,12,7,3,8,1,1,2,5,1,5,2,1,4,3,2,5,1,1,3,3,2,1,2,2,1,1,3,3,5,3,5,3,5,1,3,7,5,14,9,3,15,5,13,NULL,NULL,NULL,NULL,NULL,NULL
2023-07-30-23:00:48,2124,html-button-response,1,2501,0.0-1.0,2,53,vas8yz0z,1,NULL,NULL,0,9,7,3,8,1,1,2,2,2,5,2,1,3,3,2,5,1,2,4,3,1,1,2,2,1,1,2,2,2,4,2,2,4,1,2,5,3,20,9,0,15,13,5,NULL,NULL,NULL,NULL,NULL,NULL
2023-07-30-23:00:43,2108,html-button-response,1,2244,0.0-1.0,2,21,xfo02x86,1,NULL,NULL,0,12,7,3,8,1,1,2,2,1,5,1,1,2,3,3,4,1,1,1,3,2,1,2,2,1,1,2,3,3,4,2,3,2,3,3,6,4,14,12,0,5,13,15,NULL,NULL,NULL,NULL,NULL,NULL
2023-07-30-23:00:52,5803,html-button-response,1,6546,0.0-1.0,1,43,ga42dtrz,1,NULL,NULL,0,20,7,3,8,1,1,2,2,2,5,1,1,4,5,3,3,1,1,2,3,2,1,2,2,3,1,3,3,2,3,3,1,4,1,3,5,3,20,12,8,5,13,15,NULL,NULL,NULL,NULL,NULL,NULL
2023-07-30-23:00:47,7675,html-button-response,1,8569,0.0-1.0,1,49,yyy0e233,1,NULL,NULL,0,7,7,3,8,1,1,2,2,1,5,1,1,3,4,1,4,1,1,2,4,2,1,2,1,2,1,3,3,3,3,2,1,3,2,2,6,3,8,8,-1,5,13,15,NULL,NULL,NULL,NULL,NULL,NULL
2023-07-30-23:00:25,2117,html-button-response,1,2315,0.0-1.0,1,54,w18q8qml,1,NULL,NULL,0,9,7,3,8,1,1,2,3,2,5,2,1,3,4,2,5,1,2,1,3,2,1,2,2,1,1,2,3,3,2,3,1,4,2,2,4,4,14,9,0,15,13,5,NULL,NULL,NULL,NULL,NULL,NULL
2023-07-30-23:00:58,13072,html-button-response,1,14048,0.0-1.0,1,30,n8dao672,1,NULL,NULL,0,10,7,3,8,1,1,2,2,2,5,1,1,4,5,1,2,1,2,4,4,2,1,2,2,1,1,3,3,4,4,1,1,3,1,1,5,1,11,10,0,5,13,15,NULL,NULL,NULL,NULL,NULL,NULL
2023-07-30-23:00:27,4883,html-button-response,1,5129,0.0-1.0,1,38,ez42ns2q,1,NULL,NULL,0,9,7,3,8,1,1,2,2,2,5,1,1,4,5,1,4,1,1,2,5,2,2,2,2,4,1,3,2,5,1,2,2,3,2,4,1,3,10,9,0,15,5,13,NULL,NULL,NULL,NULL,NULL,NULL
2023-07-30-23:00:47,11014,html-button-response,1,11418,0.0-1.0,2,49,6o7llcw2,1,NULL,NULL,0,12,7,3,8,1,1,2,4,3,5,1,1,3,5,2,5,1,2,1,2,2,1,2,2,1,1,3,3,2,4,3,1,3,1,1,6,3,10,12,0,5,13,15,NULL,NULL,NULL,NULL,NULL,NULL
2023-07-30-23:00:47,6888,html-button-response,1,7447,0.0-1.0,1,43,g3sff4qd,1,NULL,NULL,0,7,7,3,8,3,2,2,2,2,5,2,2,4,4,3,2,1,2,2,4,2,1,2,2,2,1,2,3,2,3,4,1,4,1,1,4,5,9,7,0,5,15,13,NULL,NULL,NULL,NULL,NULL,NULL
2023-07-30-23:01:34,16374,html-button-response,1,16953,0.0-1.0,1,41,d5rm161c,1,NULL,NULL,0,10,7,3,8,1,1,2,2,2,5,1,1,3,4,2,4,1,2,4,4,2,1,2,2,1,1,3,3,3,4,2,2,4,2,3,3,4,13,10,0,5,13,15,NULL,NULL,NULL,NULL,NULL,NULL
2023-07-30-23:01:37,15456,html-button-response,1,15475,0.0-1.0,1,35,j7fom8la,1,NULL,NULL,0,12,7,3,8,1,1,2,3,2,5,1,1,4,4,2,3,1,2,4,5,2,1,2,2,1,1,3,3,2,4,3,1,3,3,2,4,5,11,12,0,13,15,5,NULL,NULL,NULL,NULL,NULL,NULL
2023-07-30-23:01:20,13411,html-button-response,1,14303,0.0-1.0,1,49,t4nyhu0m,1,NULL,NULL,0,9,7,3,8,1,1,2,2,2,5,1,1,3,5,2,4,1,2,1,3,2,1,2,1,2,1,2,3,2,5,3,1,3,2,4,6,4,13,9,0,5,15,13,NULL,NULL,NULL,NULL,NULL,NULL
2023-07-30-23:01:23,7361,html-button-response,1,7910,0.0-1.0,2,41,zzun895j,1,NULL,NULL,0,11,7,3,8,1,1,2,2,2,5,1,1,4,5,2,4,1,1,1,1,2,1,2,2,1,1,3,3,2,3,4,2,4,2,2,6,3,12,11,0,5,13,15,NULL,NULL,NULL,NULL,NULL,NULL
2023-07-30-23:00:58,4685,html-button-response,1,5427,0.0-1.0,1,37,oua1uzz4,1,NULL,NULL,0,8,7,3,8,1,1,2,4,2,5,1,1,4,4,2,4,1,1,2,4,2,1,2,2,2,1,3,3,2,3,4,2,4,2,2,7,4,13,8,0,13,15,5,NULL,NULL,NULL,NULL,NULL,NULL
2023-07-30-23:02:33,30774,html-button-response,1,31549,0.0-1.0,1,53,wydyuoyu,1,NULL,NULL,0,13,7,3,8,1,1,2,3,4,5,1,1,3,5,2,5,1,1,1,4,2,2,1,1,1,1,4,4,1,5,3,1,3,1,4,3,4,10,13,0,5,15,13,NULL,NULL,NULL,NULL,NULL,NULL
2023-07-30-23:00:28,5340,html-button-response,1,5611,0.0-1.0,1,58,3h8qcmnx,1,NULL,NULL,0,9,7,3,8,1,1,2,4,2,5,2,1,4,4,2,4,1,1,3,4,2,1,2,2,2,1,3,3,2,4,1,1,3,1,1,3,5,8,9,0,13,5,15,NULL,NULL,NULL,NULL,NULL,NULL
2023-07-30-23:01:17,4927,html-button-response,1,5633,0.0-1.0,2,31,vsl31vmk,1,NULL,NULL,0,6,7,3,8,1,1,2,2,2,5,1,1,3,4,3,5,1,1,2,1,2,1,2,2,3,1,2,2,2,3,4,1,3,1,1,4,5,8,6,0,5,15,13,NULL,NULL,NULL,NULL,NULL,NULL
2023-07-30-23:00:53,5970,html-button-response,1,6960,0.0-1.0,1,47,eo093md2,1,NULL,NULL,0,14,7,3,8,1,1,2,3,2,5,1,1,3,2,2,4,1,2,1,4,2,1,2,2,2,1,2,2,2,4,3,1,4,2,4,4,4,14,14,0,15,5,13,NULL,NULL,NULL,NULL,NULL,NULL
2023-07-30-23:00:56,7859,html-button-response,1,8343,0.0-1.0,1,44,mm9qhu0v,1,NULL,NULL,0,8,7,3,8,1,1,2,2,4,5,1,1,3,5,2,5,1,1,4,4,2,2,1,1,4,1,2,2,3,4,3,1,2,2,4,5,5,13,8,0,15,5,13,NULL,NULL,NULL,NULL,NULL,NULL
2023-07-30-23:01:06,5253,html-button-response,1,6838,0.0-1.0,1,51,9fd4ts3l,1,NULL,NULL,0,10,7,3,8,1,1,2,3,3,5,1,1,4,5,3,2,1,2,2,4,2,1,2,2,1,1,3,3,2,4,2,1,3,1,1,4,4,9,11,-1,5,13,15,NULL,NULL,NULL,NULL,NULL,NULL
2023-07-30-23:01:15,13818,html-button-response,1,14245,0.0-1.0,2,54,0lk5e25x,1,NULL,NULL,0,9,7,3,8,1,1,2,4,3,5,1,1,4,2,3,3,1,2,3,1,2,1,1,2,1,1,3,3,2,5,4,1,4,4,4,3,3,10,9,0,5,15,13,NULL,NULL,NULL,NULL,NULL,NULL
2023-07-30-23:00:37,4044,html-button-response,1,4498,0.0-1.0,2,27,63cmj0op,1,NULL,NULL,0,11,7,3,8,1,1,2,3,1,5,1,1,3,4,3,4,1,1,4,3,2,1,2,2,1,1,3,3,3,3,2,2,4,1,1,6,5,10,11,0,13,15,5,NULL,NULL,NULL,NULL,NULL,NULL
2023-07-30-23:02:23,20780,html-button-response,1,21423,0.0-1.0,1,55,39sxbveq,1,NULL,NULL,0,10,7,3,8,1,1,2,3,4,5,1,1,3,3,2,4,1,2,4,4,2,1,2,2,2,1,3,3,1,5,3,1,3,1,1,7,3,13,10,0,13,15,5,NULL,NULL,NULL,NULL,NULL,NULL
2023-07-30-23:00:50,10340,html-button-response,1,10356,0.0-1.0,1,56,q11u569e,1,NULL,NULL,0,11,7,3,8,1,1,2,3,4,5,1,1,3,3,3,4,1,2,4,4,2,1,2,2,2,1,2,2,2,3,1,1,3,2,2,5,4,13,11,0,13,15,5,NULL,NULL,NULL,NULL,NULL,NULL
2023-07-30-23:00:51,15017,html-button-response,1,15272,0.0-1.0,1,52,qz8sx6d4,1,NULL,NULL,0,12,7,3,8,1,1,2,3,3,5,2,1,3,4,1,5,1,2,4,4,2,2,1,1,1,1,2,2,3,2,4,1,4,1,4,1,3,10,12,0,15,13,5,NULL,NULL,NULL,NULL,NULL,NULL
2023-07-30-23:01:25,16298,html-button-response,1,17055,0.0-1.0,1,51,eh5flg19,1,NULL,NULL,0,9,7,3,8,1,1,2,2,3,5,1,1,5,2,2,2,1,1,4,5,2,1,2,1,2,1,2,2,4,1,2,1,3,4,4,2,3,11,9,0,5,15,13,NULL,NULL,NULL,NULL,NULL,NULL
2023-07-30-23:00:43,8423,html-button-response,1,9125,0.0-1.0,1,44,8w6s8r7m,1,NULL,NULL,0,11,7,3,8,1,1,2,3,4,5,2,2,3,4,1,4,1,2,4,4,2,2,1,2,1,1,3,3,2,3,1,1,5,1,3,4,4,8,11,0,13,5,15,NULL,NULL,NULL,NULL,NULL,NULL
2023-07-30-23:01:57,33877,html-button-response,1,34260,0.0-1.0,1,40,yh68zdjs,1,NULL,NULL,0,11,7,3,8,1,1,2,2,2,5,1,1,5,4,3,2,1,2,4,4,2,1,2,2,2,1,3,3,1,4,4,1,4,3,3,2,4,10,11,0,13,5,15,NULL,NULL,NULL,NULL,NULL,NULL
2023-07-30-23:01:10,7048,html-button-response,1,8101,0.0-1.0,1,55,m66atvzo,1,NULL,NULL,0,13,7,3,8,1,1,2,2,3,5,1,1,4,1,2,4,1,1,2,4,2,2,1,1,3,1,2,2,1,5,1,1,2,1,2,7,4,12,13,0,5,15,13,NULL,NULL,NULL,NULL,NULL,NULL
2023-07-30-23:01:25,26506,html-button-response,1,27282,0.0-1.0,1,58,wbdhwwv1,1,NULL,NULL,0,12,7,3,8,1,1,2,2,2,5,1,1,4,5,3,3,1,1,2,5,2,1,1,1,1,1,3,2,2,1,4,1,4,2,4,3,3,11,12,0,15,13,5,NULL,NULL,NULL,NULL,NULL,NULL
2023-07-30-23:02:35,29046,html-button-response,1,35285,0.0-1.0,1,42,pubf58th,1,NULL,NULL,0,12,7,3,8,1,1,2,1,2,5,1,1,5,4,3,2,2,1,2,4,2,2,2,2,1,1,2,2,3,2,4,2,4,4,4,2,3,11,12,0,15,13,5,NULL,NULL,NULL,NULL,NULL,NULL
2023-07-30-23:01:27,25337,html-button-response,1,26470,0.0-1.0,1,52,6wv2o9n7,1,NULL,NULL,0,10,7,3,8,1,1,2,2,1,5,1,1,5,4,1,4,3,1,2,4,2,1,2,2,1,1,3,3,2,4,4,2,2,1,1,3,3,11,10,0,13,15,5,NULL,NULL,NULL,NULL,NULL,NULL
2023-07-30-23:02:39,16482,html-button-response,1,17237,0.0-1.0,2,58,oe17zodf,1,NULL,NULL,0,13,7,3,8,1,1,2,3,3,5,1,1,3,5,2,4,1,2,1,2,2,1,2,2,2,1,2,2,1,5,1,1,4,2,2,6,3,8,13,0,13,15,5,NULL,NULL,NULL,NULL,NULL,NULL
2023-07-30-23:07:23,2584,html-button-response,1,3313,0.0-1.0,1,42,w7zelmgh,1,NULL,NULL,0,12,7,3,8,1,1,2,1,4,5,1,1,3,5,2,4,1,1,2,3,2,1,2,2,4,1,3,3,3,5,1,1,3,3,5,2,5,20,12,0,5,13,15,NULL,NULL,NULL,NULL,NULL,NULL
2023-07-30-23:01:15,3509,html-button-response,1,3515,0.0-1.0,1,49,8hz5bzgc,1,NULL,NULL,0,7,7,3,8,1,1,2,2,2,5,1,1,4,2,3,2,1,1,4,1,1,1,2,2,1,1,2,1,4,5,2,1,1,2,4,2,2,15,7,0,13,5,15,NULL,NULL,NULL,NULL,NULL,NULL
2023-07-30-23:03:14,22451,html-button-response,1,23101,0.0-1.0,1,66,e20oasrz,1,NULL,NULL,0,9,7,3,8,1,1,2,2,2,5,1,1,3,4,1,5,1,1,2,4,2,1,1,2,2,1,1,1,1,5,2,1,4,1,1,2,3,14,9,0,5,15,13,NULL,NULL,NULL,NULL,NULL,NULL
2023-07-30-23:01:55,19075,html-button-response,1,19706,0.0-1.0,2,52,n93gwbp4,1,NULL,NULL,0,12,7,3,8,1,1,2,3,2,5,1,1,4,4,3,3,1,2,4,3,2,2,2,1,1,1,3,3,3,3,3,2,4,3,4,2,3,13,12,0,15,13,5,NULL,NULL,NULL,NULL,NULL,NULL
2023-07-30-23:01:50,38799,html-button-response,1,39560,0.0-1.0,2,24,pds3mn9u,1,NULL,NULL,0,13,7,3,8,1,1,2,3,3,5,3,3,3,5,2,4,1,1,2,3,2,1,2,2,1,1,2,2,1,5,5,1,3,3,4,4,2,7,13,0,13,5,15,NULL,NULL,NULL,NULL,NULL,NULL
2023-07-30-23:02:37,36158,html-button-response,1,37204,0.0-1.0,1,48,sba35cbp,1,NULL,NULL,0,9,7,3,8,1,1,2,1,4,5,1,1,3,4,1,4,1,2,3,3,2,2,2,2,1,1,3,3,3,4,3,1,3,1,3,4,2,10,9,0,5,13,15,NULL,NULL,NULL,NULL,NULL,NULL
2023-07-30-23:03:04,60161,html-button-response,1,60313,0.0-1.0,1,67,0w1pmw9f,1,NULL,NULL,0,8,7,3,8,1,1,2,3,3,5,1,1,3,5,2,5,1,1,1,3,2,1,2,2,1,1,2,2,1,4,1,1,4,1,1,5,3,10,8,0,5,13,15,NULL,NULL,NULL,NULL,NULL,NULL
2023-07-30-23:09:39,4558,html-button-response,1,4571,0.0-1.0,1,59,pad5jfuj,1,NULL,NULL,0,9,7,3,8,1,1,2,5,2,5,1,1,2,5,3,5,1,2,4,4,2,1,2,2,2,1,2,3,2,3,2,1,4,1,2,7,2,13,11,-2,15,5,13,NULL,NULL,NULL,NULL,NULL,NULL
2023-07-30-23:01:35,33953,html-button-response,1,34183,0.0-1.0,1,53,gsmtpyqw,1,NULL,NULL,0,8,7,3,8,1,1,2,2,3,5,1,1,4,4,3,3,1,1,4,4,2,1,2,2,4,1,2,2,1,4,2,1,4,1,1,5,4,12,8,0,13,5,15,NULL,NULL,NULL,NULL,NULL,NULL
2023-07-30-23:02:18,25922,html-button-response,1,27186,0.0-1.0,1,27,acm0q61f,1,NULL,NULL,0,12,7,3,8,1,1,2,1,2,5,1,1,3,4,1,3,1,1,1,2,2,2,2,2,2,1,3,3,4,1,4,2,4,5,5,5,1,15,12,0,15,13,5,NULL,NULL,NULL,NULL,NULL,NULL
2023-07-30-23:16:55,43895,html-button-response,1,44668,0.0-1.0,2,18,fo2jtr3n,1,NULL,NULL,0,13,7,3,8,1,1,2,2,2,5,1,1,4,4,2,4,1,2,1,4,2,1,2,2,1,1,3,3,3,3,3,1,3,1,3,5,3,14,13,0,15,13,5,NULL,NULL,NULL,NULL,NULL,NULL
2023-07-30-23:28:01,1655003,html-button-response,1,1655913,0.0-1.0,1,39,tc9to0s8,1,NULL,NULL,0,11,7,3,8,1,1,2,3,1,5,1,1,3,3,2,3,1,1,1,3,2,1,2,2,1,1,2,2,3,3,3,1,3,3,3,5,3,0,11,0,5,15,13,NULL,NULL,NULL,NULL,NULL,NULL
2023-07-31-08:00:20,1589,html-button-response,1,1619,0.0-1.0,1,32,2ak0h3lq,1,NULL,NULL,0,14,1,3,3,1,1,2,3,1,5,1,1,4,5,3,4,1,1,1,4,2,1,2,2,2,1,2,2,4,1,4,1,4,4,3,7,4,13,14,0,15,13,5,NULL,NULL,NULL,NULL,NULL,NULL
2023-07-31-08:00:29,1562,html-button-response,1,2534,0.0-1.0,2,35,fzlg0uy8,1,NULL,NULL,0,13,1,3,3,1,2,2,2,2,3,1,1,3,3,2,3,1,1,2,2,2,1,2,2,1,1,2,2,2,1,2,1,2,2,2,4,3,2,10,3,13,15,5,NULL,NULL,NULL,NULL,NULL,NULL
2023-07-31-08:00:33,1571,html-button-response,1,2271,0.0-1.0,1,47,xqteulq1,1,NULL,NULL,0,12,1,3,3,1,1,2,1,2,5,1,1,5,5,1,1,1,1,1,5,2,2,2,2,4,1,1,1,1,1,1,1,4,4,4,1,3,12,12,0,15,13,5,NULL,NULL,NULL,NULL,NULL,NULL
2023-07-31-08:00:52,1725,html-button-response,1,2199,0.0-1.0,1,42,jj7nncgw,1,NULL,NULL,0,11,1,3,3,2,1,2,3,2,5,1,1,3,3,2,3,3,1,1,3,2,1,2,2,1,1,3,3,2,5,3,1,3,2,3,6,3,17,11,0,15,13,5,NULL,NULL,NULL,NULL,NULL,NULL
2023-07-31-08:00:47,3003,html-button-response,1,4825,0.0-1.0,1,52,1tg09syt,1,NULL,NULL,0,9,1,3,3,1,1,2,2,4,5,1,1,5,5,3,2,1,1,3,1,2,1,2,1,1,1,2,2,1,2,3,1,4,1,3,5,4,7,9,0,13,15,5,NULL,NULL,NULL,NULL,NULL,NULL
2023-07-31-08:00:39,2839,html-button-response,1,3355,0.0-1.0,2,51,93203l4u,1,NULL,NULL,0,10,1,3,3,1,1,2,2,3,5,1,1,5,5,3,2,1,2,3,4,2,1,2,2,1,1,3,3,4,1,2,1,2,2,2,6,2,11,10,0,5,13,15,NULL,NULL,NULL,NULL,NULL,NULL
2023-07-31-08:00:43,3250,html-button-response,1,6001,0.0-1.0,1,47,aakeh8tp,1,NULL,NULL,0,10,1,3,3,2,1,2,1,1,5,1,1,4,4,2,3,1,2,4,1,2,1,2,2,4,1,2,3,1,1,2,1,4,4,3,3,4,10,10,0,13,15,5,NULL,NULL,NULL,NULL,NULL,NULL
2023-07-31-08:00:36,1211,html-button-response,1,1941,0.0-1.0,2,31,px37zkzb,1,NULL,NULL,0,11,1,3,3,1,1,2,2,3,4,2,1,3,3,2,4,3,1,2,2,2,1,2,2,3,1,2,3,2,2,2,1,3,3,3,7,3,5,9,2,13,5,15,NULL,NULL,NULL,NULL,NULL,NULL
2023-07-31-08:00:38,1381,html-button-response,1,1552,0.0-1.0,1,51,hmvdr8ol,1,NULL,NULL,0,10,1,3,3,1,1,2,2,4,5,1,1,4,4,2,3,1,2,4,5,2,1,2,2,1,1,2,2,4,5,3,1,3,3,3,5,3,11,10,0,15,13,5,NULL,NULL,NULL,NULL,NULL,NULL
2023-07-31-08:01:17,20640,html-button-response,1,20882,0.0-1.0,1,44,7puyj4c1,1,NULL,NULL,0,10,1,3,3,1,1,2,2,1,5,1,1,4,2,2,3,1,1,2,4,2,1,2,2,4,1,3,3,3,2,2,1,4,2,3,5,1,12,10,0,13,5,15,NULL,NULL,NULL,NULL,NULL,NULL
2023-07-31-08:00:35,2264,html-button-response,1,2889,0.0-1.0,1,49,9k4z0gr3,1,NULL,NULL,0,11,1,3,3,2,2,2,2,2,4,1,1,2,4,2,4,3,1,3,3,2,1,2,2,4,1,1,1,1,5,2,1,3,2,2,5,4,7,11,0,5,15,13,NULL,NULL,NULL,NULL,NULL,NULL
2023-07-31-08:00:38,3927,html-button-response,1,4950,0.0-1.0,2,33,hynpfzy9,1,NULL,NULL,0,6,1,3,3,1,1,2,3,4,5,2,1,3,4,2,4,1,2,2,3,2,1,2,2,1,1,3,3,1,2,1,1,3,3,3,5,3,7,6,0,5,15,13,NULL,NULL,NULL,NULL,NULL,NULL
2023-07-31-08:00:34,1209,html-button-response,1,1214,0.0-1.0,1,38,rglj6y1n,1,NULL,NULL,0,9,1,3,3,2,1,2,4,1,5,4,2,5,5,2,5,1,1,3,5,2,1,2,2,1,1,3,3,5,2,5,1,5,3,1,7,5,14,9,0,15,5,13,NULL,NULL,NULL,NULL,NULL,NULL
2023-07-31-08:01:31,5140,html-button-response,1,5920,0.0-1.0,1,55,mvdo3qf5,1,NULL,NULL,0,10,1,3,3,1,1,2,2,2,4,1,1,4,4,3,4,1,1,2,2,2,2,2,1,2,1,2,2,2,3,2,2,2,2,4,3,3,12,10,0,13,15,5,NULL,NULL,NULL,NULL,NULL,NULL
2023-07-31-08:00:49,1790,html-button-response,1,2117,0.0-1.0,2,48,zsa0y5vw,1,NULL,NULL,0,12,1,3,3,2,1,2,2,2,5,1,1,5,5,3,2,1,2,3,3,2,1,2,2,4,1,3,3,1,3,4,1,4,2,2,6,3,12,12,0,15,5,13,NULL,NULL,NULL,NULL,NULL,NULL
2023-07-31-08:00:49,5806,html-button-response,1,6563,0.0-1.0,2,46,3kfugrgu,1,NULL,NULL,0,10,1,3,3,1,1,2,3,4,5,1,1,4,4,3,3,3,1,4,2,2,1,2,2,1,1,2,2,2,2,2,1,4,1,2,5,3,9,10,0,15,5,13,NULL,NULL,NULL,NULL,NULL,NULL
2023-07-31-08:03:04,5646,html-button-response,1,5798,0.0-1.0,1,38,zlqhm5yd,1,NULL,NULL,0,11,1,3,3,1,1,2,2,2,5,1,1,4,4,1,3,1,1,2,5,2,2,2,2,4,1,3,2,5,5,4,1,4,2,4,1,3,9,11,0,15,13,5,NULL,NULL,NULL,NULL,NULL,NULL
2023-07-31-08:00:46,2164,html-button-response,1,3413,0.0-1.0,2,32,8t0a8rmf,1,NULL,NULL,0,10,1,3,3,1,1,2,1,2,5,1,1,3,3,2,4,1,2,4,4,2,1,2,2,4,1,1,1,2,1,1,1,4,3,3,2,4,13,11,-1,5,13,15,NULL,NULL,NULL,NULL,NULL,NULL
2023-07-31-08:00:54,6486,html-button-response,1,7404,0.0-1.0,1,65,kfcuutl1,1,NULL,NULL,0,9,1,3,3,1,1,2,4,2,5,1,1,3,4,2,4,1,1,4,3,2,2,1,2,4,1,3,3,1,1,1,1,3,1,1,3,3,10,8,1,15,5,13,NULL,NULL,NULL,NULL,NULL,NULL
2023-07-31-08:01:02,2054,html-button-response,1,2516,0.0-1.0,1,48,fo8uedpb,1,NULL,NULL,0,9,1,3,3,1,1,2,2,3,5,1,1,4,5,3,2,1,2,1,5,2,1,2,2,4,1,3,3,2,1,2,1,5,2,4,4,5,11,9,0,15,5,13,NULL,NULL,NULL,NULL,NULL,NULL
2023-07-31-08:00:50,6202,html-button-response,1,7192,0.0-1.0,2,28,7xbotqx0,1,NULL,NULL,0,13,1,3,3,1,1,2,3,2,5,3,3,3,3,2,4,1,1,2,4,2,1,2,2,1,1,2,2,3,1,3,1,4,3,3,6,4,12,13,0,15,5,13,NULL,NULL,NULL,NULL,NULL,NULL
2023-07-31-08:00:49,2527,html-button-response,1,2785,0.0-1.0,1,59,8ywjk6bx,1,NULL,NULL,0,11,1,3,3,3,1,2,4,2,4,4,1,2,3,2,3,1,2,3,3,2,2,2,2,1,1,2,2,4,2,2,2,3,2,3,2,5,11,9,2,5,15,13,NULL,NULL,NULL,NULL,NULL,NULL
2023-07-31-08:02:32,10206,html-button-response,1,11009,0.0-1.0,1,66,zqkhcecl,1,NULL,NULL,0,8,1,3,3,1,1,2,4,3,5,2,1,4,4,2,4,1,1,1,2,2,1,2,2,4,1,3,3,2,1,3,1,4,1,1,8,3,11,8,0,13,15,5,NULL,NULL,NULL,NULL,NULL,NULL
2023-07-31-08:01:24,20198,html-button-response,1,21900,0.0-1.0,2,43,41huf4s7,1,NULL,NULL,0,8,1,3,3,1,1,2,3,2,5,2,1,3,5,3,4,1,1,4,1,2,1,2,2,2,1,4,4,2,1,1,1,4,2,4,4,2,6,8,0,5,15,13,NULL,NULL,NULL,NULL,NULL,NULL
2023-07-31-08:00:57,9466,html-button-response,1,10308,0.0-1.0,2,32,w6nndznx,1,NULL,NULL,0,12,1,3,3,1,1,2,3,3,5,1,1,4,5,1,4,3,1,2,2,2,1,2,2,2,1,3,3,1,2,1,1,4,1,2,3,4,12,12,0,5,13,15,NULL,NULL,NULL,NULL,NULL,NULL
2023-07-31-08:00:50,7915,html-button-response,1,8948,0.0-1.0,2,42,0acq9o9n,1,NULL,NULL,0,8,1,3,3,1,1,2,1,1,5,2,3,4,4,2,4,1,1,1,3,2,1,2,1,1,2,2,3,3,1,4,2,2,3,3,6,3,2,7,1,15,5,13,NULL,NULL,NULL,NULL,NULL,NULL
2023-07-31-08:01:13,5620,html-button-response,1,6365,0.0-1.0,1,61,poytgylz,1,NULL,NULL,0,10,1,3,3,1,1,2,1,4,5,1,1,5,2,2,2,1,2,1,4,2,2,1,2,1,1,2,2,3,1,2,1,4,4,3,3,4,10,10,0,5,13,15,NULL,NULL,NULL,NULL,NULL,NULL
2023-07-31-08:01:35,14222,html-button-response,1,15542,0.0-1.0,1,49,6rns1k32,1,NULL,NULL,0,10,1,3,3,1,1,2,2,3,5,1,1,4,2,2,4,1,1,2,4,1,1,2,2,3,2,4,4,1,5,2,1,2,1,2,2,2,12,7,3,5,13,15,NULL,NULL,NULL,NULL,NULL,NULL
2023-07-31-08:05:12,1897,html-button-response,1,2559,0.0-1.0,1,42,j24x20ug,1,NULL,NULL,0,11,1,3,3,1,1,2,1,4,5,1,1,3,3,2,5,1,1,2,3,2,1,2,2,4,1,3,2,1,5,1,1,1,3,5,2,5,20,11,0,13,5,15,NULL,NULL,NULL,NULL,NULL,NULL
2023-07-31-08:01:01,4599,html-button-response,1,5619,0.0-1.0,2,65,x2odluum,1,NULL,NULL,0,10,1,3,3,1,1,2,2,2,5,2,2,3,3,2,3,1,1,4,3,2,1,1,1,4,1,2,2,1,2,1,1,3,3,3,5,3,10,10,0,13,5,15,NULL,NULL,NULL,NULL,NULL,NULL
2023-07-31-08:02:19,28535,html-button-response,1,28962,0.0-1.0,2,45,g15e2d9x,1,NULL,NULL,0,10,1,3,3,1,1,2,3,4,5,1,1,4,5,3,5,1,2,1,2,2,1,2,2,1,1,2,2,1,3,4,1,3,2,4,6,4,12,10,0,13,15,5,NULL,NULL,NULL,NULL,NULL,NULL
2023-07-31-08:05:43,8969,html-button-response,1,10416,0.0-1.0,1,53,mlo7nb0k,1,NULL,NULL,0,11,1,3,3,2,1,2,3,3,5,1,1,3,5,2,5,1,2,4,2,2,1,2,2,3,1,2,2,3,2,3,1,4,2,3,5,3,9,9,2,15,5,13,NULL,NULL,NULL,NULL,NULL,NULL
2023-07-31-08:01:14,19165,html-button-response,1,19759,0.0-1.0,1,40,lgapmlmx,1,NULL,NULL,0,11,1,3,3,1,1,2,1,2,5,2,1,5,1,2,2,1,2,4,4,2,1,2,2,1,1,3,3,2,5,5,3,1,1,1,3,4,9,11,0,5,15,13,NULL,NULL,NULL,NULL,NULL,NULL
2023-07-31-08:01:22,5408,html-button-response,1,5580,0.0-1.0,2,64,uyqj0u44,1,NULL,NULL,0,10,1,1,3,1,1,2,4,3,5,1,1,4,5,2,5,2,2,4,1,2,1,2,2,1,1,3,2,1,5,4,1,1,4,2,6,4,13,10,0,15,5,13,NULL,NULL,NULL,NULL,NULL,NULL
2023-07-31-08:01:09,7917,html-button-response,1,8171,0.0-1.0,1,55,5734gk3v,1,NULL,NULL,0,7,1,3,3,1,1,2,4,4,5,1,1,3,5,3,5,1,1,2,2,2,2,1,1,2,1,3,3,1,1,1,1,3,2,2,6,4,12,7,0,13,15,5,NULL,NULL,NULL,NULL,NULL,NULL
2023-07-31-08:01:27,2157,html-button-response,1,2167,0.0-1.0,1,49,ll5cl476,1,NULL,NULL,0,5,1,3,3,1,1,2,2,4,5,3,4,5,2,2,2,1,1,4,4,2,2,2,2,1,1,3,3,1,5,3,1,3,4,5,3,2,12,5,0,15,5,13,NULL,NULL,NULL,NULL,NULL,NULL
2023-07-31-08:01:54,26856,html-button-response,1,28737,0.0-1.0,1,66,26ktpqaz,1,NULL,NULL,0,10,1,3,3,1,1,2,2,1,5,1,1,3,3,3,3,1,2,3,3,2,1,1,1,1,1,2,2,3,1,3,2,3,4,4,4,3,0,10,0,13,15,5,NULL,NULL,NULL,NULL,NULL,NULL
2023-07-31-08:03:51,47443,html-button-response,1,47659,0.0-1.0,1,45,jsjaeo59,1,NULL,NULL,0,10,1,3,3,1,1,2,4,2,5,1,1,4,4,1,2,1,2,2,4,2,1,2,2,1,1,2,2,2,5,2,1,2,2,4,4,4,10,10,0,15,5,13,NULL,NULL,NULL,NULL,NULL,NULL
2023-07-31-08:01:06,2651,html-button-response,1,3011,0.0-1.0,1,55,vute829o,1,NULL,NULL,0,11,1,3,3,4,2,2,2,2,5,1,1,3,5,2,4,3,2,4,4,1,1,2,2,4,1,2,3,2,1,4,2,3,4,2,4,1,11,11,0,13,15,5,NULL,NULL,NULL,NULL,NULL,NULL
2023-07-31-08:01:57,34235,html-button-response,1,34996,0.0-1.0,2,50,yp0ctogq,1,NULL,NULL,0,14,1,3,3,1,1,2,3,2,5,2,2,3,4,2,5,1,2,4,4,2,2,2,2,1,1,3,3,4,1,1,1,4,4,2,3,3,7,14,0,13,15,5,NULL,NULL,NULL,NULL,NULL,NULL
2023-07-31-08:05:36,39908,html-button-response,1,40208,0.0-1.0,1,62,gq04q071,1,NULL,NULL,0,9,1,3,3,1,1,2,4,3,5,3,1,3,3,3,5,1,2,1,4,2,1,2,2,2,1,2,2,2,1,2,1,2,1,1,7,4,14,9,0,13,15,5,NULL,NULL,NULL,NULL,NULL,NULL
2023-07-31-08:06:08,44805,html-button-response,1,45747,0.0-1.0,2,54,7v4b6ag5,1,NULL,NULL,0,10,1,3,3,1,1,2,4,3,5,1,1,4,5,1,5,1,2,4,4,2,1,1,2,1,1,2,2,1,5,2,1,1,1,2,6,5,11,10,0,15,13,5,NULL,NULL,NULL,NULL,NULL,NULL
2023-07-31-08:05:23,1300,html-button-response,1,1722,0.0-1.0,2,35,spbbq9fw,1,NULL,NULL,0,13,1,3,3,1,1,2,2,3,5,1,1,2,2,2,3,1,2,3,5,2,2,2,1,1,1,2,1,4,5,4,1,1,3,4,3,3,14,13,0,15,5,13,NULL,NULL,NULL,NULL,NULL,NULL
2023-07-31-08:01:53,33430,html-button-response,1,34593,0.0-1.0,1,51,anl9c4m8,1,NULL,NULL,0,9,1,3,3,1,1,2,3,1,5,1,1,3,3,1,3,1,1,2,4,2,1,2,2,2,1,3,3,2,2,3,1,2,1,1,2,2,8,9,0,5,13,15,NULL,NULL,NULL,NULL,NULL,NULL
2023-07-31-08:01:41,9925,html-button-response,1,10259,0.0-1.0,2,62,wmhn03nw,1,NULL,NULL,0,10,1,3,3,1,1,2,3,1,5,1,1,3,4,2,3,3,1,1,3,2,1,2,2,1,1,2,2,3,2,3,1,3,3,2,4,4,16,10,0,5,15,13,NULL,NULL,NULL,NULL,NULL,NULL
2023-07-31-08:00:49,8512,html-button-response,1,9214,0.0-1.0,2,59,twq4lykr,1,NULL,NULL,0,11,1,3,3,1,1,2,2,4,5,2,1,3,4,2,5,1,1,1,2,2,1,2,2,1,1,2,2,2,1,2,1,4,2,2,5,3,7,11,0,5,15,13,NULL,NULL,NULL,NULL,NULL,NULL
2023-07-31-08:02:08,29414,html-button-response,1,30407,0.0-1.0,1,42,ybcjs7pf,1,NULL,NULL,0,8,1,3,3,1,1,2,2,2,5,1,1,5,3,3,2,1,1,1,3,2,1,2,1,1,1,3,3,1,5,1,1,3,1,2,1,5,13,8,0,5,15,13,NULL,NULL,NULL,NULL,NULL,NULL
2023-07-31-08:12:43,8333,html-button-response,1,9357,0.0-1.0,2,54,9jk1qxnn,1,NULL,NULL,0,11,1,3,3,1,1,2,2,2,5,1,1,4,2,2,3,1,2,3,3,2,1,2,2,1,1,3,3,4,1,2,1,4,2,1,4,3,15,11,0,5,15,13,NULL,NULL,NULL,NULL,NULL,NULL
2023-07-31-08:15:42,2406,html-button-response,1,2427,0.0-1.0,1,46,2hqnsdy7,1,NULL,NULL,0,8,1,3,3,3,1,2,1,3,4,1,1,4,5,2,3,1,1,1,2,2,1,2,2,1,1,2,2,2,2,3,1,4,3,4,5,3,12,8,0,15,13,5,NULL,NULL,NULL,NULL,NULL,NULL